durationstep,LongKey,vowel,SpecificOrigCoda,OrigCoda,trial,response,Longresps,responsetime,participant,order
10,left,a,d,voiced,0,right,0,5.567197084,126,aiu
4,left,a,g,voiced,1,right,0,3.912647009,126,aiu
2,left,a,g,voiced,3,right,0,4.498132944,126,aiu
3,left,a,d,voiced,5,right,0,3.862111092,126,aiu
8,left,a,d,voiced,7,left,1,1.590595007,126,aiu
5,left,a,g,voiced,8,left,1,3.142004013,126,aiu
10,left,a,g,voiced,9,left,1,0.90633893,126,aiu
1,left,a,d,voiced,12,right,0,0.956423998,126,aiu
1,left,a,g,voiced,18,right,0,1.123398066,126,aiu
9,left,a,d,voiced,20,left,1,1.608093023,126,aiu
7,left,a,d,voiced,21,left,1,1.437571049,126,aiu
5,left,a,d,voiced,23,right,0,1.186930895,126,aiu
2,left,a,d,voiced,26,right,0,3.578094006,126,aiu
7,left,a,g,voiced,28,left,1,2.45964694,126,aiu
6,left,a,d,voiced,29,right,0,6.168418884,126,aiu
9,left,a,g,voiced,30,left,1,1.222885847,126,aiu
8,left,a,g,voiced,35,left,1,2.843179941,126,aiu
4,left,a,d,voiced,36,right,0,1.370424986,126,aiu
6,left,a,g,voiced,37,left,1,3.12826705,126,aiu
3,left,a,g,voiced,38,right,0,1.45767498,126,aiu
5,left,i,d,voiced,2,right,0,1.406382084,126,aiu
7,left,i,d,voiced,4,left,1,0.972855091,126,aiu
1,left,i,g,voiced,8,right,0,1.153395176,126,aiu
10,left,i,g,voiced,9,left,1,1.339253902,126,aiu
3,left,i,d,voiced,10,right,0,1.123746872,126,aiu
10,left,i,d,voiced,12,left,1,1.841081142,126,aiu
6,left,i,g,voiced,14,left,1,2.242754936,126,aiu
2,left,i,d,voiced,15,right,0,1.023285866,126,aiu
3,left,i,g,voiced,16,right,0,1.17308116,126,aiu
4,left,i,g,voiced,17,right,0,1.056329966,126,aiu
9,left,i,d,voiced,18,right,0,2.225317001,126,aiu
1,left,i,d,voiced,23,right,0,1.97556901,126,aiu
8,left,i,g,voiced,24,right,0,3.161715031,126,aiu
5,left,i,g,voiced,25,right,0,1.522974968,126,aiu
6,left,i,d,voiced,27,right,0,2.042267084,126,aiu
7,left,i,g,voiced,29,left,1,1.723428965,126,aiu
9,left,i,g,voiced,33,left,1,1.607478142,126,aiu
4,left,i,d,voiced,34,right,0,3.529209137,126,aiu
2,left,i,g,voiced,38,right,0,1.65803194,126,aiu
8,left,i,d,voiced,39,left,1,1.407351017,126,aiu
2,left,u,g,voiced,1,right,0,0.819304228,126,aiu
1,left,u,d,voiced,5,right,0,1.557672977,126,aiu
3,left,u,d,voiced,6,right,0,0.872872114,126,aiu
7,left,u,d,voiced,7,right,0,0.838360786,126,aiu
7,left,u,g,voiced,8,right,0,1.540167093,126,aiu
2,left,u,d,voiced,10,right,0,1.95746994,126,aiu
10,left,u,d,voiced,12,left,1,1.089589834,126,aiu
6,left,u,g,voiced,13,left,1,1.557093143,126,aiu
9,left,u,g,voiced,14,left,1,0.788218975,126,aiu
5,left,u,d,voiced,15,right,0,2.609429121,126,aiu
8,left,u,d,voiced,17,right,0,2.025694847,126,aiu
8,left,u,g,voiced,19,left,1,1.003322124,126,aiu
5,left,u,g,voiced,20,left,1,0.788594007,126,aiu
9,left,u,d,voiced,24,left,1,1.690774202,126,aiu
3,left,u,g,voiced,29,right,0,2.191298008,126,aiu
1,left,u,g,voiced,31,right,0,2.890768051,126,aiu
10,left,u,g,voiced,33,left,1,1.858125925,126,aiu
4,left,u,g,voiced,34,right,0,3.412258863,126,aiu
6,left,u,d,voiced,35,right,0,2.927896023,126,aiu
4,left,u,d,voiced,36,right,0,0.938904047,126,aiu
5,right,a,d,voiced,2,right,1,2.029653072,101,aiu
3,right,a,g,voiced,3,left,0,1.287282944,101,aiu
4,right,a,d,voiced,5,left,0,1.75928688,101,aiu
10,right,a,g,voiced,7,right,1,0.932859898,101,aiu
9,right,a,d,voiced,9,right,1,0.999700069,101,aiu
3,right,a,d,voiced,10,right,1,0.86503005,101,aiu
2,right,a,d,voiced,11,left,0,0.811007023,101,aiu
7,right,a,d,voiced,13,left,0,0.94837594,101,aiu
8,right,a,d,voiced,20,left,0,0.898419142,101,aiu
8,right,a,g,voiced,23,right,1,0.932396173,101,aiu
5,right,a,g,voiced,24,right,1,1.034250975,101,aiu
10,right,a,d,voiced,27,right,1,1.01397419,101,aiu
2,right,a,g,voiced,28,left,0,0.982800961,101,aiu
1,right,a,d,voiced,29,left,0,1.216149807,101,aiu
7,right,a,g,voiced,30,left,0,1.101424932,101,aiu
1,right,a,g,voiced,32,right,1,0.811186075,101,aiu
9,right,a,g,voiced,34,right,1,1.219696999,101,aiu
4,right,a,g,voiced,35,right,1,0.980018854,101,aiu
6,right,a,d,voiced,36,left,0,1.607462883,101,aiu
6,right,a,g,voiced,37,right,1,1.219660044,101,aiu
6,right,i,d,voiced,5,right,1,1.421263933,101,aiu
5,right,i,d,voiced,6,right,1,1.084121943,101,aiu
6,right,i,g,voiced,7,right,1,0.963467121,101,aiu
1,right,i,g,voiced,8,right,1,0.679295063,101,aiu
10,right,i,g,voiced,12,right,1,0.93256402,101,aiu
3,right,i,d,voiced,15,right,1,0.87877512,101,aiu
3,right,i,g,voiced,16,left,0,1.773561955,101,aiu
2,right,i,d,voiced,20,right,1,0.912301064,101,aiu
9,right,i,d,voiced,22,right,1,1.01380682,101,aiu
1,right,i,d,voiced,24,right,1,0.662492037,101,aiu
2,right,i,g,voiced,25,left,0,0.914775133,101,aiu
8,right,i,d,voiced,26,right,1,1.00049305,101,aiu
4,right,i,g,voiced,27,right,1,1.084054947,101,aiu
5,right,i,g,voiced,28,left,0,0.929120064,101,aiu
8,right,i,g,voiced,29,left,0,0.932674885,101,aiu
9,right,i,g,voiced,31,left,0,0.746498108,101,aiu
10,right,i,d,voiced,33,right,1,1.252402067,101,aiu
7,right,i,g,voiced,35,right,1,0.660918951,101,aiu
4,right,i,d,voiced,37,right,1,0.898185968,101,aiu
7,right,i,d,voiced,38,right,1,0.763571024,101,aiu
3,right,u,d,voiced,0,left,0,1.287322044,101,aiu
10,right,u,d,voiced,1,left,0,0.966032982,101,aiu
9,right,u,d,voiced,3,right,1,0.980010986,101,aiu
4,right,u,d,voiced,5,right,1,0.966166019,101,aiu
1,right,u,d,voiced,6,right,1,0.696528196,101,aiu
1,right,u,g,voiced,10,right,1,0.898861885,101,aiu
8,right,u,g,voiced,12,right,1,0.560652971,101,aiu
10,right,u,g,voiced,13,right,1,0.797470808,101,aiu
6,right,u,g,voiced,14,left,0,0.830301046,101,aiu
7,right,u,g,voiced,16,left,0,0.746481895,101,aiu
5,right,u,d,voiced,17,right,1,0.625451803,101,aiu
5,right,u,g,voiced,21,left,0,0.96805501,101,aiu
3,right,u,g,voiced,23,left,0,0.797693014,101,aiu
2,right,u,d,voiced,24,right,1,0.644711018,101,aiu
9,right,u,g,voiced,29,right,1,0.861898899,101,aiu
7,right,u,d,voiced,32,right,1,1.405427933,101,aiu
4,right,u,g,voiced,33,left,0,0.848322868,101,aiu
2,right,u,g,voiced,34,left,0,0.814483166,101,aiu
8,right,u,d,voiced,36,right,1,0.94948411,101,aiu
6,right,u,d,voiced,39,right,1,1.370454073,101,aiu
2,left,i,g,voiced,2,right,0,1.506726027,102,iua
5,left,i,g,voiced,4,right,0,1.252384901,102,iua
9,left,i,g,voiced,5,right,0,1.218684912,102,iua
1,left,i,d,voiced,8,right,0,0.931936026,102,iua
3,left,i,g,voiced,9,right,0,0.98236084,102,iua
9,left,i,d,voiced,10,left,1,1.047469854,102,iua
6,left,i,g,voiced,11,right,0,1.810694933,102,iua
3,left,i,d,voiced,13,right,0,0.996661186,102,iua
2,left,i,d,voiced,14,right,0,0.982712984,102,iua
1,left,i,g,voiced,16,right,0,1.10088706,102,iua
10,left,i,d,voiced,18,left,1,0.861880064,102,iua
8,left,i,d,voiced,19,left,1,0.747087955,102,iua
6,left,i,d,voiced,21,left,1,0.729343891,102,iua
10,left,i,g,voiced,22,left,1,1.11837101,102,iua
4,left,i,d,voiced,24,right,0,1.235982895,102,iua
5,left,i,d,voiced,25,right,0,0.96579504,102,iua
8,left,i,g,voiced,29,left,1,0.931610107,102,iua
7,left,i,g,voiced,31,left,1,0.847523928,102,iua
4,left,i,g,voiced,36,right,0,1.168036222,102,iua
7,left,i,d,voiced,39,left,1,1.000527143,102,iua
3,left,u,g,voiced,1,left,1,0.898925066,102,iua
5,left,u,d,voiced,2,left,1,0.932509899,102,iua
5,left,u,g,voiced,6,left,1,0.915681124,102,iua
4,left,u,g,voiced,8,left,1,1.20290494,102,iua
9,left,u,g,voiced,9,left,1,1.167963982,102,iua
2,left,u,d,voiced,10,right,0,0.796502113,102,iua
2,left,u,g,voiced,11,right,0,0.898991108,102,iua
6,left,u,g,voiced,15,left,1,0.847316027,102,iua
7,left,u,g,voiced,16,left,1,0.746188879,102,iua
8,left,u,d,voiced,18,left,1,0.948897839,102,iua
1,left,u,d,voiced,21,right,0,0.746437073,102,iua
10,left,u,g,voiced,23,left,1,0.948282003,102,iua
9,left,u,d,voiced,24,left,1,0.831210852,102,iua
6,left,u,d,voiced,25,left,1,0.661052942,102,iua
8,left,u,g,voiced,26,left,1,0.898509979,102,iua
3,left,u,d,voiced,31,right,0,0.946301937,102,iua
4,left,u,d,voiced,33,right,0,1.405598879,102,iua
10,left,u,d,voiced,34,left,1,1.017069101,102,iua
7,left,u,d,voiced,35,left,1,0.881689072,102,iua
1,left,u,g,voiced,36,right,0,0.999217033,102,iua
2,left,a,g,voiced,1,right,0,1.371611118,102,iua
4,left,a,g,voiced,2,right,0,1.691337109,102,iua
7,left,a,g,voiced,4,right,0,1.047508001,102,iua
6,left,a,d,voiced,7,right,0,1.488852978,102,iua
10,left,a,g,voiced,9,left,1,0.999593973,102,iua
8,left,a,d,voiced,13,left,1,1.351223946,102,iua
1,left,a,d,voiced,14,right,0,0.983530045,102,iua
1,left,a,g,voiced,16,right,0,0.898738146,102,iua
10,left,a,d,voiced,18,left,1,1.000417948,102,iua
6,left,a,g,voiced,21,left,1,1.355000019,102,iua
4,left,a,d,voiced,25,left,1,0.796663046,102,iua
9,left,a,g,voiced,26,left,1,1.101063967,102,iua
3,left,a,g,voiced,27,left,1,1.283807993,102,iua
8,left,a,g,voiced,28,left,1,0.847937822,102,iua
7,left,a,d,voiced,29,right,0,0.779721975,102,iua
5,left,a,g,voiced,30,left,1,0.915804863,102,iua
9,left,a,d,voiced,31,left,1,1.219362974,102,iua
5,left,a,d,voiced,32,left,1,1.353466988,102,iua
2,left,a,d,voiced,34,right,0,1.388617992,102,iua
3,left,a,d,voiced,39,right,0,1.067749977,102,iua
3,left,a,d,voiced,0,right,0,2.769682884,103,aui
2,left,a,d,voiced,1,right,0,1.051231146,103,aui
5,left,a,d,voiced,4,right,0,0.94951582,103,aui
4,left,a,g,voiced,6,left,1,0.751266956,103,aui
1,left,a,d,voiced,8,right,0,0.830636978,103,aui
6,left,a,d,voiced,10,right,0,5.643211842,103,aui
8,left,a,d,voiced,12,left,1,0.89772296,103,aui
2,left,a,g,voiced,16,right,0,0.932775021,103,aui
10,left,a,g,voiced,17,left,1,0.979974031,103,aui
3,left,a,g,voiced,20,right,0,1.726438046,103,aui
8,left,a,g,voiced,21,left,1,0.881381989,103,aui
6,left,a,g,voiced,22,left,1,1.118530989,103,aui
1,left,a,g,voiced,23,right,0,1.081356049,103,aui
9,left,a,g,voiced,27,left,1,1.573359013,103,aui
5,left,a,g,voiced,30,left,1,2.654006004,103,aui
7,left,a,d,voiced,31,left,1,1.675039053,103,aui
7,left,a,g,voiced,32,right,0,1.169070005,103,aui
9,left,a,d,voiced,33,left,1,1.117935896,103,aui
4,left,a,d,voiced,35,right,0,3.546041965,103,aui
10,left,a,d,voiced,38,left,1,1.049782991,103,aui
7,left,u,d,voiced,0,left,1,5.811585903,103,aui
4,left,u,g,voiced,3,left,1,0.93206501,103,aui
2,left,u,g,voiced,4,right,0,0.914116859,103,aui
3,left,u,d,voiced,5,right,0,1.067788124,103,aui
3,left,u,g,voiced,10,right,0,1.117910147,103,aui
8,left,u,d,voiced,12,left,1,0.898353815,103,aui
7,left,u,g,voiced,13,right,0,2.178951025,103,aui
10,left,u,g,voiced,14,left,1,0.932687998,103,aui
9,left,u,d,voiced,17,left,1,0.91257906,103,aui
10,left,u,d,voiced,19,left,1,2.570518017,103,aui
4,left,u,d,voiced,22,left,1,3.613765955,103,aui
1,left,u,g,voiced,23,right,0,0.983211994,103,aui
5,left,u,g,voiced,25,right,0,1.421295166,103,aui
1,left,u,d,voiced,26,right,0,1.23667407,103,aui
8,left,u,g,voiced,27,left,1,1.236048937,103,aui
6,left,u,d,voiced,28,right,0,1.168960094,103,aui
9,left,u,g,voiced,29,left,1,2.1142869,103,aui
2,left,u,d,voiced,31,right,0,0.949494123,103,aui
5,left,u,d,voiced,32,right,0,2.738115072,103,aui
6,left,u,g,voiced,38,left,1,1.705692053,103,aui
5,left,i,d,voiced,0,left,1,1.486553907,103,aui
3,left,i,d,voiced,1,right,0,1.000273228,103,aui
2,left,i,g,voiced,3,right,0,0.780275106,103,aui
6,left,i,g,voiced,4,right,0,0.949126005,103,aui
2,left,i,d,voiced,5,right,0,1.523748875,103,aui
4,left,i,d,voiced,9,left,1,0.813961029,103,aui
7,left,i,d,voiced,13,left,1,0.897918224,103,aui
9,left,i,d,voiced,14,left,1,1.067893028,103,aui
3,left,i,g,voiced,15,right,0,1.083346128,103,aui
8,left,i,d,voiced,16,left,1,1.10077405,103,aui
9,left,i,g,voiced,23,left,1,1.084409952,103,aui
6,left,i,d,voiced,25,left,1,0.848429918,103,aui
8,left,i,g,voiced,26,right,0,0.861655951,103,aui
1,left,i,d,voiced,29,left,1,0.966406107,103,aui
5,left,i,g,voiced,30,right,0,3.059401035,103,aui
4,left,i,g,voiced,33,right,0,1.62487793,103,aui
10,left,i,d,voiced,34,left,1,1.050176144,103,aui
1,left,i,g,voiced,35,right,0,1.793076038,103,aui
7,left,i,g,voiced,36,left,1,2.063127041,103,aui
10,left,i,g,voiced,39,left,1,1.756381035,103,aui
9,right,a,g,voiced,1,right,1,1.067189932,104,aui
2,right,a,g,voiced,3,right,1,1.000149965,104,aui
8,right,a,d,voiced,4,right,1,1.469693899,104,aui
8,right,a,g,voiced,9,right,1,0.966409922,104,aui
7,right,a,d,voiced,12,left,0,5.622744083,104,aui
4,right,a,d,voiced,16,left,0,0.915652037,104,aui
6,right,a,g,voiced,17,right,1,0.932027102,104,aui
1,right,a,d,voiced,18,left,0,0.880697966,104,aui
5,right,a,d,voiced,20,left,0,1.404371977,104,aui
1,right,a,g,voiced,21,right,1,0.94629693,104,aui
3,right,a,d,voiced,23,left,0,0.931997061,104,aui
9,right,a,d,voiced,24,right,1,1.269539118,104,aui
5,right,a,g,voiced,25,right,1,1.219472885,104,aui
2,right,a,d,voiced,27,left,0,1.016620874,104,aui
10,right,a,d,voiced,30,right,1,1.016371965,104,aui
4,right,a,g,voiced,31,right,1,0.898535013,104,aui
6,right,a,d,voiced,33,left,0,1.794157028,104,aui
3,right,a,g,voiced,34,right,1,1.033483028,104,aui
10,right,a,g,voiced,38,right,1,1.017161131,104,aui
7,right,a,g,voiced,39,right,1,1.067114115,104,aui
7,right,u,g,voiced,0,right,1,1.385258198,104,aui
1,right,u,d,voiced,2,left,0,0.844887972,104,aui
2,right,u,d,voiced,3,left,0,1.033430099,104,aui
9,right,u,g,voiced,4,right,1,1.186136007,104,aui
3,right,u,d,voiced,5,left,0,0.847038984,104,aui
6,right,u,d,voiced,6,left,0,3.14093709,104,aui
9,right,u,d,voiced,9,left,0,1.962861061,104,aui
6,right,u,g,voiced,11,right,1,1.337663889,104,aui
7,right,u,d,voiced,15,left,0,1.168129921,104,aui
5,right,u,d,voiced,21,left,0,1.624517202,104,aui
10,right,u,d,voiced,25,right,1,1.372166872,104,aui
3,right,u,g,voiced,26,right,1,1.388542175,104,aui
8,right,u,d,voiced,28,left,0,0.89843297,104,aui
10,right,u,g,voiced,29,right,1,1.1319139,104,aui
4,right,u,d,voiced,31,left,0,2.958022833,104,aui
2,right,u,g,voiced,33,left,0,0.946166039,104,aui
1,right,u,g,voiced,34,left,0,0.847777128,104,aui
8,right,u,g,voiced,36,right,1,1.134701014,104,aui
4,right,u,g,voiced,37,right,1,1.320316792,104,aui
5,right,u,g,voiced,39,right,1,1.386962891,104,aui
9,right,i,g,voiced,0,right,1,1.287200928,104,aui
3,right,i,g,voiced,1,right,1,1.286948919,104,aui
1,right,i,d,voiced,9,left,0,1.01631999,104,aui
7,right,i,d,voiced,10,right,1,1.42255497,104,aui
10,right,i,d,voiced,11,right,1,1.860867977,104,aui
4,right,i,g,voiced,13,right,1,1.454933882,104,aui
1,right,i,g,voiced,14,left,0,0.797753096,104,aui
7,right,i,g,voiced,15,right,1,1.202771187,104,aui
2,right,i,g,voiced,16,left,0,1.843116999,104,aui
5,right,i,g,voiced,19,left,0,1.067252159,104,aui
10,right,i,g,voiced,20,right,1,0.966647863,104,aui
8,right,i,g,voiced,23,right,1,1.287470102,104,aui
3,right,i,d,voiced,25,left,0,1.118396997,104,aui
9,right,i,d,voiced,28,right,1,1.015895128,104,aui
6,right,i,d,voiced,30,right,1,1.269697905,104,aui
4,right,i,d,voiced,31,right,1,1.032740116,104,aui
5,right,i,d,voiced,33,right,1,2.636680126,104,aui
6,right,i,g,voiced,35,right,1,0.999495983,104,aui
8,right,i,d,voiced,37,right,1,0.880960941,104,aui
2,right,i,d,voiced,38,right,1,2.332999945,104,aui
8,left,i,d,voiced,0,right,0,2.520627975,105,iau
1,left,i,g,voiced,2,right,0,0.999660015,105,iau
10,left,i,d,voiced,4,left,1,1.353038073,105,iau
8,left,i,g,voiced,6,left,1,1.504850864,105,iau
6,left,i,d,voiced,7,right,0,1.099739075,105,iau
2,left,i,g,voiced,8,right,0,0.779640198,105,iau
9,left,i,d,voiced,10,left,1,1.015266895,105,iau
5,left,i,g,voiced,12,left,1,1.404826164,105,iau
6,left,i,g,voiced,13,left,1,1.184813976,105,iau
3,left,i,g,voiced,16,left,1,1.741415024,105,iau
4,left,i,d,voiced,17,left,1,1.706042051,105,iau
1,left,i,d,voiced,25,right,0,0.914564133,105,iau
7,left,i,d,voiced,26,left,1,1.809300184,105,iau
5,left,i,d,voiced,29,left,1,0.89893198,105,iau
7,left,i,g,voiced,30,left,1,1.404947996,105,iau
4,left,i,g,voiced,31,left,1,1.522876024,105,iau
10,left,i,g,voiced,33,left,1,1.236562967,105,iau
3,left,i,d,voiced,34,left,1,1.168804169,105,iau
2,left,i,d,voiced,35,left,1,1.06712985,105,iau
9,left,i,g,voiced,39,left,1,1.000248909,105,iau
6,left,a,g,voiced,2,left,1,1.658913136,105,iau
5,left,a,g,voiced,7,right,0,0.848262787,105,iau
9,left,a,d,voiced,8,left,1,1.050299883,105,iau
1,left,a,d,voiced,10,right,0,0.983328104,105,iau
10,left,a,d,voiced,11,left,1,1.047508955,105,iau
4,left,a,g,voiced,12,right,0,1.455852032,105,iau
2,left,a,d,voiced,13,right,0,1.304156065,105,iau
10,left,a,g,voiced,14,left,1,1.269800186,105,iau
8,left,a,d,voiced,15,left,1,1.590471983,105,iau
4,left,a,d,voiced,16,left,1,1.100911856,105,iau
9,left,a,g,voiced,19,left,1,1.422248125,105,iau
3,left,a,d,voiced,21,right,0,1.169239044,105,iau
3,left,a,g,voiced,24,right,0,0.983497858,105,iau
2,left,a,g,voiced,28,right,0,1.473280907,105,iau
7,left,a,d,voiced,29,right,0,1.776343822,105,iau
5,left,a,d,voiced,33,left,1,0.897916079,105,iau
8,left,a,g,voiced,34,right,0,1.117298841,105,iau
6,left,a,d,voiced,37,right,0,1.151094913,105,iau
1,left,a,g,voiced,38,right,0,0.966656923,105,iau
7,left,a,g,voiced,39,right,0,0.878677845,105,iau
1,left,u,d,voiced,0,right,0,1.77661705,105,iau
4,left,u,g,voiced,2,left,1,0.865150928,105,iau
2,left,u,d,voiced,3,right,0,0.999249935,105,iau
5,left,u,g,voiced,4,left,1,1.353708029,105,iau
10,left,u,d,voiced,5,left,1,0.948836088,105,iau
3,left,u,d,voiced,8,right,0,1.047509909,105,iau
4,left,u,d,voiced,12,right,0,1.591208935,105,iau
1,left,u,g,voiced,13,right,0,0.864398003,105,iau
9,left,u,g,voiced,14,left,1,1.354082108,105,iau
7,left,u,g,voiced,20,left,1,1.203125,105,iau
6,left,u,d,voiced,21,left,1,1.457035065,105,iau
8,left,u,g,voiced,23,left,1,1.876842976,105,iau
3,left,u,g,voiced,24,left,1,2.114314079,105,iau
8,left,u,d,voiced,25,right,0,1.101477861,105,iau
7,left,u,d,voiced,30,left,1,1.252582073,105,iau
5,left,u,d,voiced,31,right,0,1.151055098,105,iau
10,left,u,g,voiced,32,left,1,1.319986105,105,iau
2,left,u,g,voiced,33,right,0,1.286706924,105,iau
6,left,u,g,voiced,34,left,1,1.878228903,105,iau
9,left,u,d,voiced,35,right,0,1.807254791,105,iau
10,right,i,d,voiced,0,right,1,5.270776987,106,iau
4,right,i,d,voiced,1,right,1,3.748866081,106,iau
9,right,i,d,voiced,2,right,1,2.789518118,106,iau
1,right,i,g,voiced,5,left,0,0.98326993,106,iau
5,right,i,g,voiced,6,left,0,1.843155146,106,iau
8,right,i,g,voiced,10,right,1,1.574365139,106,iau
9,right,i,g,voiced,16,right,1,2.638219118,106,iau
3,right,i,d,voiced,17,left,0,0.898225069,106,iau
10,right,i,g,voiced,19,right,1,1.117508888,106,iau
2,right,i,d,voiced,21,left,0,1.218718052,106,iau
2,right,i,g,voiced,22,left,0,0.932090044,106,iau
7,right,i,d,voiced,27,right,1,1.607269049,106,iau
6,right,i,d,voiced,28,right,1,1.066966057,106,iau
6,right,i,g,voiced,29,right,1,1.21970892,106,iau
1,right,i,d,voiced,31,left,0,1.047616005,106,iau
3,right,i,g,voiced,32,left,0,1.691972017,106,iau
5,right,i,d,voiced,33,left,0,1.135097027,106,iau
4,right,i,g,voiced,35,left,0,1.689222097,106,iau
8,right,i,d,voiced,38,right,1,0.983340979,106,iau
7,right,i,g,voiced,39,right,1,1.962491035,106,iau
6,right,a,d,voiced,2,right,1,1.064193964,106,iau
7,right,a,d,voiced,9,right,1,1.337852955,106,iau
10,right,a,d,voiced,12,right,1,0.882049799,106,iau
5,right,a,g,voiced,13,left,0,1.135335207,106,iau
9,right,a,g,voiced,15,left,0,1.641206026,106,iau
9,right,a,d,voiced,17,right,1,1.168017149,106,iau
3,right,a,g,voiced,20,left,0,1.454905033,106,iau
6,right,a,g,voiced,22,left,0,1.118103027,106,iau
10,right,a,g,voiced,23,left,0,1.218672037,106,iau
8,right,a,d,voiced,24,right,1,0.897285938,106,iau
2,right,a,g,voiced,27,left,0,1.320116043,106,iau
8,right,a,g,voiced,30,right,1,1.219284058,106,iau
2,right,a,d,voiced,31,right,1,1.691158772,106,iau
4,right,a,d,voiced,33,right,1,1.709528208,106,iau
1,right,a,d,voiced,34,left,0,0.982722044,106,iau
3,right,a,d,voiced,35,left,0,1.067086935,106,iau
5,right,a,d,voiced,36,left,0,1.06688714,106,iau
4,right,a,g,voiced,37,left,0,1.337437153,106,iau
1,right,a,g,voiced,38,left,0,0.980231047,106,iau
7,right,a,g,voiced,39,left,0,1.270510912,106,iau
3,right,u,g,voiced,1,left,0,1.353735924,106,iau
8,right,u,d,voiced,2,right,1,1.067664146,106,iau
8,right,u,g,voiced,3,right,1,1.4210639,106,iau
6,right,u,d,voiced,4,right,1,1.438971043,106,iau
10,right,u,g,voiced,9,right,1,1.16563201,106,iau
2,right,u,d,voiced,10,left,0,1.385284901,106,iau
7,right,u,g,voiced,11,right,1,1.151149988,106,iau
6,right,u,g,voiced,15,right,1,1.252830982,106,iau
9,right,u,d,voiced,18,right,1,1.435770988,106,iau
7,right,u,d,voiced,20,left,0,1.203056097,106,iau
3,right,u,d,voiced,22,left,0,1.100670099,106,iau
1,right,u,g,voiced,25,left,0,1.404127836,106,iau
4,right,u,g,voiced,26,left,0,1.168075085,106,iau
4,right,u,d,voiced,27,left,0,1.320971012,106,iau
2,right,u,g,voiced,30,left,0,1.266808987,106,iau
1,right,u,d,voiced,33,left,0,1.218980074,106,iau
9,right,u,g,voiced,35,right,1,1.084693909,106,iau
5,right,u,g,voiced,36,right,1,1.016024113,106,iau
5,right,u,d,voiced,37,left,0,1.199323893,106,iau
10,right,u,d,voiced,39,right,1,1.218939066,106,iau
7,left,u,d,voiced,0,left,1,7.685297012,107,uai
4,left,u,d,voiced,1,left,1,3.951591969,107,uai
3,left,u,d,voiced,2,right,0,1.927788973,107,uai
6,left,u,g,voiced,5,right,0,1.266821146,107,uai
1,left,u,d,voiced,6,right,0,0.99914217,107,uai
2,left,u,d,voiced,9,right,0,0.915076971,107,uai
5,left,u,g,voiced,11,left,1,0.965230942,107,uai
3,left,u,g,voiced,12,left,1,1.456008911,107,uai
2,left,u,g,voiced,15,left,1,1.454977989,107,uai
8,left,u,d,voiced,22,left,1,1.452733994,107,uai
4,left,u,g,voiced,26,left,1,1.202209949,107,uai
6,left,u,d,voiced,27,left,1,1.067287922,107,uai
9,left,u,d,voiced,28,left,1,0.966451883,107,uai
5,left,u,d,voiced,30,left,1,0.863966942,107,uai
10,left,u,g,voiced,31,right,0,1.641407967,107,uai
8,left,u,g,voiced,33,left,1,1.776684046,107,uai
9,left,u,g,voiced,34,left,1,1.167752981,107,uai
1,left,u,g,voiced,35,left,1,1.370641947,107,uai
7,left,u,g,voiced,38,left,1,1.43908596,107,uai
10,left,u,d,voiced,39,left,1,2.080317974,107,uai
5,left,a,d,voiced,0,right,0,1.066739082,107,uai
5,left,a,g,voiced,1,right,0,0.814666033,107,uai
2,left,a,d,voiced,2,right,0,0.780363083,107,uai
7,left,a,d,voiced,3,right,0,0.811044931,107,uai
1,left,a,d,voiced,5,right,0,0.966551065,107,uai
7,left,a,g,voiced,7,right,0,0.982631922,107,uai
2,left,a,g,voiced,8,right,0,0.675928116,107,uai
4,left,a,g,voiced,9,right,0,0.760556936,107,uai
8,left,a,g,voiced,10,right,0,0.847131968,107,uai
6,left,a,g,voiced,11,right,0,0.847073078,107,uai
10,left,a,g,voiced,14,left,1,0.898616076,107,uai
3,left,a,d,voiced,15,right,0,1.084508181,107,uai
4,left,a,d,voiced,23,right,0,1.050486803,107,uai
9,left,a,g,voiced,24,left,1,0.949335098,107,uai
6,left,a,d,voiced,25,right,0,0.828022003,107,uai
3,left,a,g,voiced,28,right,0,0.847142935,107,uai
1,left,a,g,voiced,32,right,0,0.914218903,107,uai
10,left,a,d,voiced,34,right,0,0.98360014,107,uai
8,left,a,d,voiced,36,right,0,2.080646992,107,uai
9,left,a,d,voiced,37,left,1,2.722273111,107,uai
10,left,i,d,voiced,1,right,0,2.012255192,107,uai
3,left,i,g,voiced,4,right,0,0.881083012,107,uai
4,left,i,g,voiced,5,right,0,1.152549028,107,uai
10,left,i,g,voiced,6,left,1,1.269292831,107,uai
2,left,i,d,voiced,12,left,1,0.814284086,107,uai
5,left,i,d,voiced,13,right,0,1.168951035,107,uai
4,left,i,d,voiced,15,right,0,0.929162025,107,uai
3,left,i,d,voiced,17,right,0,0.828037024,107,uai
8,left,i,g,voiced,18,right,0,0.932773829,107,uai
7,left,i,g,voiced,20,left,1,1.388232946,107,uai
9,left,i,d,voiced,21,left,1,0.999176025,107,uai
7,left,i,d,voiced,23,left,1,0.780800104,107,uai
5,left,i,g,voiced,24,left,1,1.049790859,107,uai
1,left,i,g,voiced,25,left,1,1.492040873,107,uai
2,left,i,g,voiced,27,right,0,1.032842159,107,uai
6,left,i,d,voiced,29,left,1,1.94492197,107,uai
8,left,i,d,voiced,30,left,1,1.21645999,107,uai
1,left,i,d,voiced,34,left,1,0.696570873,107,uai
6,left,i,g,voiced,36,left,1,1.202234983,107,uai
9,left,i,g,voiced,39,right,0,1.624921083,107,uai
10,left,u,d,voiced,0,left,1,10.18546391,108,uia
6,left,u,d,voiced,2,left,1,1.554087162,108,uia
1,left,u,g,voiced,3,right,0,1.40213418,108,uia
8,left,u,d,voiced,8,left,1,0.966438055,108,uia
2,left,u,d,voiced,11,right,0,5.624778032,108,uia
2,left,u,g,voiced,13,left,1,1.404372931,108,uia
1,left,u,d,voiced,14,right,0,1.218831062,108,uia
3,left,u,g,voiced,16,left,1,1.067373991,108,uia
8,left,u,g,voiced,18,left,1,1.303828001,108,uia
4,left,u,g,voiced,19,left,1,1.218703985,108,uia
7,left,u,g,voiced,20,left,1,1.030670166,108,uia
3,left,u,d,voiced,21,right,0,1.049659014,108,uia
6,left,u,g,voiced,23,left,1,0.999588966,108,uia
4,left,u,d,voiced,24,right,0,2.330783129,108,uia
7,left,u,d,voiced,29,left,1,1.823845863,108,uia
10,left,u,g,voiced,30,left,1,1.03071785,108,uia
9,left,u,g,voiced,31,left,1,1.101800203,108,uia
5,left,u,g,voiced,34,left,1,2.282352924,108,uia
9,left,u,d,voiced,36,left,1,1.016560793,108,uia
5,left,u,d,voiced,37,left,1,2.232847214,108,uia
3,left,i,g,voiced,0,right,0,1.65797019,108,uia
4,left,i,g,voiced,1,right,0,0.878505945,108,uia
5,left,i,d,voiced,3,right,0,2.113499165,108,uia
8,left,i,g,voiced,5,left,1,2.280166149,108,uia
8,left,i,d,voiced,8,left,1,1.625099182,108,uia
2,left,i,g,voiced,9,right,0,0.914803982,108,uia
10,left,i,g,voiced,10,left,1,1.402076006,108,uia
6,left,i,g,voiced,11,right,0,1.067746162,108,uia
9,left,i,d,voiced,13,right,0,3.920506954,108,uia
6,left,i,d,voiced,14,left,1,2.890705109,108,uia
2,left,i,d,voiced,16,right,0,1.01733017,108,uia
1,left,i,g,voiced,22,right,0,0.965751886,108,uia
10,left,i,d,voiced,23,left,1,0.965137005,108,uia
1,left,i,d,voiced,26,right,0,0.99977994,108,uia
4,left,i,d,voiced,28,right,0,0.743883848,108,uia
7,left,i,g,voiced,30,left,1,0.932122946,108,uia
5,left,i,g,voiced,32,left,1,1.692610979,108,uia
9,left,i,g,voiced,34,left,1,1.47218585,108,uia
3,left,i,d,voiced,35,right,0,0.897911072,108,uia
7,left,i,d,voiced,39,right,0,1.337553024,108,uia
8,left,a,d,voiced,0,right,0,3.229223013,108,uia
3,left,a,d,voiced,2,right,0,0.864784002,108,uia
3,left,a,g,voiced,3,right,0,0.931869984,108,uia
6,left,a,g,voiced,4,right,0,0.965615034,108,uia
2,left,a,d,voiced,6,right,0,1.102005959,108,uia
10,left,a,g,voiced,8,left,1,1.401871204,108,uia
1,left,a,d,voiced,9,right,0,1.165636063,108,uia
6,left,a,d,voiced,10,right,0,4.444427013,108,uia
9,left,a,d,voiced,11,left,1,0.948923111,108,uia
10,left,a,d,voiced,13,left,1,0.797346115,108,uia
5,left,a,d,voiced,14,left,1,0.796388865,108,uia
4,left,a,g,voiced,15,right,0,1.050942898,108,uia
2,left,a,g,voiced,17,right,0,0.962970972,108,uia
7,left,a,g,voiced,18,right,0,0.848447084,108,uia
4,left,a,d,voiced,20,left,1,2.114650965,108,uia
9,left,a,g,voiced,22,left,1,1.135207176,108,uia
8,left,a,g,voiced,25,left,1,1.100861073,108,uia
1,left,a,g,voiced,30,right,0,0.814443827,108,uia
5,left,a,g,voiced,37,right,0,0.895610809,108,uia
7,left,a,d,voiced,39,left,1,0.965376854,108,uia
6,right,i,d,voiced,0,right,1,1.424540997,110,iua
4,right,i,g,voiced,2,right,1,1.506862879,110,iua
9,right,i,g,voiced,3,right,1,1.089119196,110,iua
5,right,i,d,voiced,8,right,1,0.905343056,110,iua
9,right,i,d,voiced,10,right,1,1.022773981,110,iua
8,right,i,d,voiced,12,right,1,0.8216362,110,iua
3,right,i,g,voiced,13,right,1,0.822252035,110,iua
7,right,i,d,voiced,14,right,1,1.541295052,110,iua
3,right,i,d,voiced,20,left,0,1.556813002,110,iua
10,right,i,d,voiced,23,right,1,1.374094963,110,iua
4,right,i,d,voiced,24,left,0,1.573240042,110,iua
1,right,i,g,voiced,27,left,0,1.023144007,110,iua
2,right,i,d,voiced,28,left,0,2.142463923,110,iua
5,right,i,g,voiced,29,right,1,0.98977685,110,iua
1,right,i,d,voiced,31,left,0,1.289038181,110,iua
10,right,i,g,voiced,32,right,1,1.474540949,110,iua
2,right,i,g,voiced,34,left,0,1.406951904,110,iua
8,right,i,g,voiced,35,right,1,1.390727997,110,iua
6,right,i,g,voiced,36,right,1,0.889514923,110,iua
7,right,i,g,voiced,39,right,1,0.888690948,110,iua
3,right,u,g,voiced,1,right,1,1.691018105,110,iua
9,right,u,g,voiced,2,right,1,1.440762997,110,iua
3,right,u,d,voiced,3,left,0,0.955145121,110,iua
1,right,u,d,voiced,13,left,0,1.002879858,110,iua
9,right,u,d,voiced,14,right,1,1.286587954,110,iua
8,right,u,g,voiced,15,right,1,0.973373175,110,iua
2,right,u,d,voiced,19,left,0,0.936313152,110,iua
7,right,u,d,voiced,20,left,0,1.504092932,110,iua
5,right,u,d,voiced,22,left,0,2.007996082,110,iua
8,right,u,d,voiced,23,right,1,1.173532009,110,iua
10,right,u,d,voiced,24,right,1,0.956125975,110,iua
4,right,u,d,voiced,25,right,1,1.139791965,110,iua
2,right,u,g,voiced,26,left,0,1.090209007,110,iua
4,right,u,g,voiced,29,left,0,2.043565035,110,iua
1,right,u,g,voiced,31,left,0,1.289414883,110,iua
10,right,u,g,voiced,32,right,1,1.307107925,110,iua
6,right,u,d,voiced,34,right,1,0.705609083,110,iua
6,right,u,g,voiced,35,right,1,1.257047892,110,iua
7,right,u,g,voiced,38,right,1,1.273823023,110,iua
5,right,u,g,voiced,39,right,1,1.240509033,110,iua
1,right,a,g,voiced,1,left,0,1.439678907,110,iua
7,right,a,d,voiced,2,right,1,1.039442062,110,iua
6,right,a,d,voiced,5,left,0,1.323712111,110,iua
5,right,a,g,voiced,6,right,1,0.988693953,110,iua
6,right,a,g,voiced,7,right,1,1.641313076,110,iua
7,right,a,g,voiced,8,right,1,1.373070002,110,iua
9,right,a,d,voiced,10,left,0,2.926681042,110,iua
10,right,a,d,voiced,11,left,0,1.303761959,110,iua
2,right,a,d,voiced,12,left,0,1.055951118,110,iua
3,right,a,g,voiced,17,right,1,0.955837011,110,iua
8,right,a,d,voiced,19,left,0,2.242723942,110,iua
4,right,a,g,voiced,20,right,1,1.002772093,110,iua
3,right,a,d,voiced,21,left,0,1.10306406,110,iua
9,right,a,g,voiced,27,right,1,1.590131998,110,iua
1,right,a,d,voiced,28,left,0,1.072891951,110,iua
5,right,a,d,voiced,31,right,1,1.390774965,110,iua
2,right,a,g,voiced,33,right,1,1.357285023,110,iua
8,right,a,g,voiced,35,right,1,2.175951958,110,iua
10,right,a,g,voiced,37,right,1,1.039350986,110,iua
4,right,a,d,voiced,39,left,0,1.507255077,110,iua
6,right,u,g,voiced,0,right,1,1.808985949,111,uai
10,right,u,d,voiced,1,right,1,1.155730009,111,uai
9,right,u,d,voiced,2,right,1,1.041850805,111,uai
3,right,u,g,voiced,3,left,0,1.2723279,111,uai
8,right,u,g,voiced,4,left,0,1.039785147,111,uai
2,right,u,g,voiced,8,right,1,1.807580948,111,uai
7,right,u,d,voiced,10,left,0,1.089004993,111,uai
1,right,u,g,voiced,15,left,0,1.022974014,111,uai
5,right,u,g,voiced,18,left,0,0.955421925,111,uai
2,right,u,d,voiced,21,left,0,0.869301081,111,uai
1,right,u,d,voiced,24,left,0,1.13986516,111,uai
8,right,u,d,voiced,27,right,1,1.073642969,111,uai
4,right,u,d,voiced,28,right,1,0.855960131,111,uai
3,right,u,d,voiced,29,right,1,0.802088976,111,uai
9,right,u,g,voiced,30,right,1,0.889185905,111,uai
4,right,u,g,voiced,32,left,0,1.036273003,111,uai
6,right,u,d,voiced,35,right,1,1.072127104,111,uai
7,right,u,g,voiced,37,left,0,1.0223279,111,uai
10,right,u,g,voiced,38,right,1,0.939288855,111,uai
5,right,u,d,voiced,39,right,1,1.123648882,111,uai
3,right,a,d,voiced,8,left,0,1.056456089,111,uai
8,right,a,g,voiced,9,left,0,1.170109034,111,uai
6,right,a,g,voiced,10,left,0,1.69007802,111,uai
10,right,a,g,voiced,12,right,1,1.106390953,111,uai
3,right,a,g,voiced,14,right,1,0.939180136,111,uai
1,right,a,g,voiced,15,right,1,0.939189911,111,uai
2,right,a,g,voiced,16,right,1,0.971910954,111,uai
9,right,a,d,voiced,17,right,1,1.00551486,111,uai
6,right,a,d,voiced,18,right,1,1.390506029,111,uai
9,right,a,g,voiced,19,right,1,1.389595032,111,uai
1,right,a,d,voiced,22,left,0,1.573763847,111,uai
4,right,a,d,voiced,28,right,1,0.838953972,111,uai
7,right,a,g,voiced,29,right,1,1.89097786,111,uai
7,right,a,d,voiced,30,left,0,1.407500982,111,uai
2,right,a,d,voiced,32,left,0,1.322771072,111,uai
5,right,a,g,voiced,33,right,1,1.17327404,111,uai
5,right,a,d,voiced,35,right,1,1.138694048,111,uai
10,right,a,d,voiced,36,left,0,9.25940609,111,uai
4,right,a,g,voiced,37,left,0,1.58784914,111,uai
8,right,a,d,voiced,39,left,0,1.387373924,111,uai
3,right,i,g,voiced,0,left,0,1.591268063,111,uai
2,right,i,g,voiced,3,left,0,1.205817938,111,uai
9,right,i,d,voiced,5,right,1,0.919395924,111,uai
1,right,i,d,voiced,6,left,0,1.356376171,111,uai
5,right,i,g,voiced,7,right,1,0.888661146,111,uai
1,right,i,g,voiced,12,left,0,1.003341198,111,uai
10,right,i,g,voiced,13,right,1,1.03865099,111,uai
7,right,i,d,voiced,14,left,0,1.019717932,111,uai
6,right,i,d,voiced,15,right,1,0.839355946,111,uai
6,right,i,g,voiced,17,right,1,0.705276966,111,uai
7,right,i,g,voiced,20,right,1,1.28886795,111,uai
8,right,i,d,voiced,21,left,0,1.089056015,111,uai
8,right,i,g,voiced,23,right,1,1.072995186,111,uai
2,right,i,d,voiced,24,right,1,2.342536926,111,uai
9,right,i,g,voiced,25,right,1,1.758164883,111,uai
10,right,i,d,voiced,30,right,1,1.022576094,111,uai
4,right,i,g,voiced,31,left,0,1.006420136,111,uai
3,right,i,d,voiced,32,left,0,1.389682055,111,uai
4,right,i,d,voiced,35,left,0,1.239849091,111,uai
5,right,i,d,voiced,39,right,1,1.573015928,111,uai
2,right,u,d,voiced,0,left,0,4.880184174,112,uia
8,right,u,g,voiced,2,right,1,1.824502945,112,uia
6,right,u,g,voiced,6,right,1,1.657521009,112,uia
9,right,u,d,voiced,10,right,1,1.01379323,112,uia
1,right,u,d,voiced,11,left,0,1.117115974,112,uia
2,right,u,g,voiced,12,left,0,1.202790976,112,uia
5,right,u,d,voiced,13,right,1,1.472080946,112,uia
5,right,u,g,voiced,14,left,0,1.355509996,112,uia
10,right,u,g,voiced,15,right,1,1.067743063,112,uia
6,right,u,d,voiced,19,right,1,1.08491993,112,uia
3,right,u,g,voiced,24,left,0,1.574407816,112,uia
3,right,u,d,voiced,27,left,0,1.760037899,112,uia
1,right,u,g,voiced,30,left,0,0.999952078,112,uia
4,right,u,d,voiced,31,left,0,1.587812901,112,uia
4,right,u,g,voiced,32,left,0,1.725165129,112,uia
7,right,u,d,voiced,34,right,1,1.219806194,112,uia
7,right,u,g,voiced,36,right,1,1.216243029,112,uia
9,right,u,g,voiced,37,right,1,0.895341873,112,uia
10,right,u,d,voiced,38,right,1,0.949284792,112,uia
8,right,u,d,voiced,39,right,1,1.08300209,112,uia
9,right,i,g,voiced,0,right,1,1.52315402,112,uia
1,right,i,d,voiced,3,left,0,1.067932129,112,uia
8,right,i,d,voiced,4,right,1,1.41902113,112,uia
8,right,i,g,voiced,5,right,1,1.219923019,112,uia
3,right,i,g,voiced,6,left,0,0.932825089,112,uia
1,right,i,g,voiced,9,left,0,1.201581001,112,uia
5,right,i,d,voiced,13,right,1,1.405217886,112,uia
7,right,i,d,voiced,14,right,1,0.999929905,112,uia
4,right,i,g,voiced,15,left,0,1.388601065,112,uia
7,right,i,g,voiced,18,right,1,0.949537992,112,uia
4,right,i,d,voiced,21,left,0,1.1679039,112,uia
10,right,i,g,voiced,22,right,1,1.083559036,112,uia
6,right,i,d,voiced,26,right,1,1.117170811,112,uia
2,right,i,g,voiced,28,left,0,1.151772022,112,uia
5,right,i,g,voiced,29,left,0,1.303011894,112,uia
10,right,i,d,voiced,31,right,1,1.10050106,112,uia
6,right,i,g,voiced,32,left,0,1.202888012,112,uia
9,right,i,d,voiced,33,left,0,2.50304985,112,uia
3,right,i,d,voiced,35,left,0,0.948932886,112,uia
2,right,i,d,voiced,39,left,0,1.253442049,112,uia
9,right,a,g,voiced,9,right,1,1.067198992,112,uia
8,right,a,g,voiced,11,right,1,2.04669404,112,uia
1,right,a,d,voiced,12,left,0,1.55647707,112,uia
4,right,a,d,voiced,13,left,0,1.083781004,112,uia
9,right,a,d,voiced,15,right,1,1.743096113,112,uia
8,right,a,d,voiced,16,right,1,1.185405016,112,uia
7,right,a,g,voiced,19,left,0,1.472482204,112,uia
6,right,a,g,voiced,22,right,1,1.486501932,112,uia
6,right,a,d,voiced,23,left,0,1.151683092,112,uia
3,right,a,d,voiced,24,left,0,1.152271986,112,uia
5,right,a,d,voiced,25,left,0,1.202279091,112,uia
2,right,a,g,voiced,26,left,0,1.218461037,112,uia
10,right,a,g,voiced,27,right,1,1.084589005,112,uia
7,right,a,d,voiced,28,left,0,1.945008039,112,uia
2,right,a,d,voiced,29,left,0,1.083953142,112,uia
1,right,a,g,voiced,30,left,0,1.219820023,112,uia
10,right,a,d,voiced,32,right,1,1.114956856,112,uia
4,right,a,g,voiced,35,left,0,1.877765894,112,uia
3,right,a,g,voiced,37,left,0,0.963202953,112,uia
5,right,a,g,voiced,39,left,0,1.135223866,112,uia
7,left,u,d,voiced,0,left,1,1.945413828,113,uia
3,left,u,g,voiced,5,left,1,1.23331809,113,uia
9,left,u,g,voiced,8,left,1,1.185173035,113,uia
10,left,u,d,voiced,11,left,1,1.117901802,113,uia
9,left,u,d,voiced,12,left,1,1.000583172,113,uia
1,left,u,g,voiced,13,right,0,1.050256968,113,uia
6,left,u,g,voiced,14,right,0,1.319805145,113,uia
2,left,u,g,voiced,16,right,0,1.168879986,113,uia
5,left,u,d,voiced,17,right,0,1.351471186,113,uia
8,left,u,g,voiced,19,left,1,1.168682098,113,uia
2,left,u,d,voiced,20,right,0,1.152521849,113,uia
10,left,u,g,voiced,21,left,1,1.421368122,113,uia
4,left,u,g,voiced,22,right,0,1.826309919,113,uia
3,left,u,d,voiced,23,right,0,1.216266155,113,uia
4,left,u,d,voiced,28,left,1,1.505870819,113,uia
5,left,u,g,voiced,29,left,1,1.353830099,113,uia
1,left,u,d,voiced,31,right,0,1.810642004,113,uia
8,left,u,d,voiced,33,left,1,1.286716938,113,uia
6,left,u,d,voiced,34,left,1,1.218745947,113,uia
7,left,u,g,voiced,39,left,1,1.978903055,113,uia
10,left,i,g,voiced,0,left,1,1.268911123,113,uia
4,left,i,d,voiced,2,right,0,1.337854862,113,uia
9,left,i,g,voiced,3,left,1,1.151839972,113,uia
7,left,i,g,voiced,5,left,1,1.759978056,113,uia
3,left,i,d,voiced,7,right,0,1.706140995,113,uia
9,left,i,d,voiced,9,left,1,1.186103106,113,uia
5,left,i,d,voiced,10,right,0,1.098178864,113,uia
6,left,i,g,voiced,11,right,0,2.012274981,113,uia
3,left,i,g,voiced,16,left,1,1.540759087,113,uia
4,left,i,g,voiced,17,right,0,1.794052839,113,uia
1,left,i,d,voiced,18,right,0,1.42246294,113,uia
10,left,i,d,voiced,19,left,1,1.182302952,113,uia
7,left,i,d,voiced,21,right,0,1.641173124,113,uia
5,left,i,g,voiced,26,right,0,1.404731989,113,uia
2,left,i,g,voiced,28,right,0,1.168109179,113,uia
6,left,i,d,voiced,32,right,0,1.302979946,113,uia
8,left,i,g,voiced,34,left,1,1.169080019,113,uia
2,left,i,d,voiced,35,right,0,1.23670578,113,uia
1,left,i,g,voiced,37,right,0,1.134757996,113,uia
8,left,i,d,voiced,38,left,1,1.101318836,113,uia
5,left,a,g,voiced,0,right,0,1.591392994,113,uia
8,left,a,g,voiced,2,left,1,1.066579103,113,uia
4,left,a,g,voiced,4,left,1,1.421628952,113,uia
7,left,a,d,voiced,5,left,1,1.286993027,113,uia
10,left,a,d,voiced,6,left,1,1.100265026,113,uia
5,left,a,d,voiced,7,left,1,1.489192009,113,uia
6,left,a,d,voiced,8,left,1,1.134087086,113,uia
6,left,a,g,voiced,10,left,1,1.539546967,113,uia
1,left,a,g,voiced,11,right,0,1.387984037,113,uia
9,left,a,d,voiced,12,left,1,1.270161867,113,uia
10,left,a,g,voiced,14,left,1,1.405086041,113,uia
3,left,a,d,voiced,15,right,0,1.165847063,113,uia
2,left,a,g,voiced,17,right,0,1.520310879,113,uia
7,left,a,g,voiced,19,left,1,1.456077099,113,uia
1,left,a,d,voiced,20,right,0,1.287170172,113,uia
9,left,a,g,voiced,25,left,1,1.421795845,113,uia
4,left,a,d,voiced,26,right,0,1.118857861,113,uia
8,left,a,d,voiced,31,left,1,1.201866865,113,uia
3,left,a,g,voiced,36,right,0,1.995601892,113,uia
2,left,a,d,voiced,37,right,0,1.438519001,113,uia
9,left,a,d,voiced,1,left,1,1.978672028,114,aiu
4,left,a,d,voiced,3,left,1,3.816298008,114,aiu
5,left,a,g,voiced,5,right,0,3.431546927,114,aiu
1,left,a,g,voiced,8,right,0,1.371381998,114,aiu
7,left,a,d,voiced,9,left,1,1.539740086,114,aiu
3,left,a,d,voiced,10,right,0,4.018948793,114,aiu
10,left,a,g,voiced,11,left,1,1.384883881,114,aiu
4,left,a,g,voiced,12,left,1,1.404537916,114,aiu
8,left,a,g,voiced,14,left,1,1.945803881,114,aiu
2,left,a,g,voiced,15,left,1,2.958186865,114,aiu
3,left,a,g,voiced,16,right,0,1.165544987,114,aiu
9,left,a,g,voiced,22,left,1,1.522522926,114,aiu
2,left,a,d,voiced,26,right,0,1.708395004,114,aiu
10,left,a,d,voiced,28,left,1,1.404768944,114,aiu
8,left,a,d,voiced,29,left,1,1.250224113,114,aiu
5,left,a,d,voiced,30,right,0,2.147374868,114,aiu
7,left,a,g,voiced,31,left,1,1.590118885,114,aiu
1,left,a,d,voiced,33,right,0,1.233342171,114,aiu
6,left,a,g,voiced,34,left,1,2.400479078,114,aiu
6,left,a,d,voiced,38,left,1,2.974234104,114,aiu
10,left,i,d,voiced,0,right,0,4.305932045,114,aiu
5,left,i,g,voiced,1,left,1,1.168988943,114,aiu
2,left,i,g,voiced,2,right,0,1.084479094,114,aiu
8,left,i,g,voiced,3,right,0,1.591169119,114,aiu
6,left,i,g,voiced,9,left,1,2.216020823,114,aiu
7,left,i,g,voiced,10,left,1,1.151489019,114,aiu
4,left,i,g,voiced,11,right,0,1.253193855,114,aiu
3,left,i,d,voiced,12,right,0,1.439147949,114,aiu
2,left,i,d,voiced,14,right,0,1.067505836,114,aiu
3,left,i,g,voiced,18,right,0,1.62148118,114,aiu
9,left,i,g,voiced,19,right,0,3.330260038,114,aiu
10,left,i,g,voiced,23,left,1,1.556289911,114,aiu
4,left,i,d,voiced,25,right,0,1.101197004,114,aiu
5,left,i,d,voiced,28,left,1,3.329225063,114,aiu
9,left,i,d,voiced,29,left,1,1.098243952,114,aiu
7,left,i,d,voiced,31,left,1,1.759982824,114,aiu
6,left,i,d,voiced,35,left,1,2.486131907,114,aiu
8,left,i,d,voiced,36,left,1,2.921677113,114,aiu
1,left,i,d,voiced,37,right,0,0.932044029,114,aiu
1,left,i,g,voiced,39,right,0,1.133627892,114,aiu
1,left,u,d,voiced,0,right,0,1.827378035,114,aiu
10,left,u,g,voiced,4,left,1,2.469222784,114,aiu
3,left,u,d,voiced,5,right,0,2.077311993,114,aiu
5,left,u,g,voiced,7,left,1,1.168244123,114,aiu
5,left,u,d,voiced,8,left,1,1.826954842,114,aiu
2,left,u,d,voiced,9,left,1,0.982749939,114,aiu
6,left,u,d,voiced,10,left,1,1.25288105,114,aiu
10,left,u,d,voiced,13,left,1,0.982347965,114,aiu
8,left,u,g,voiced,15,left,1,2.940693855,114,aiu
4,left,u,g,voiced,16,right,0,1.471643925,114,aiu
8,left,u,d,voiced,19,left,1,2.975591898,114,aiu
7,left,u,g,voiced,20,left,1,3.211476803,114,aiu
7,left,u,d,voiced,25,right,0,1.000408888,114,aiu
1,left,u,g,voiced,27,right,0,1.150925159,114,aiu
3,left,u,g,voiced,30,left,1,2.161597967,114,aiu
2,left,u,g,voiced,32,left,1,3.042376995,114,aiu
9,left,u,d,voiced,33,left,1,2.418537855,114,aiu
9,left,u,g,voiced,34,left,1,2.53648591,114,aiu
6,left,u,g,voiced,38,right,0,1.573122025,114,aiu
4,left,u,d,voiced,39,right,0,0.828052044,114,aiu
2,left,a,g,voiced,1,right,0,1.216183901,115,aui
5,left,a,d,voiced,2,left,1,1.21626997,115,aui
4,left,a,g,voiced,5,right,0,1.404490948,115,aui
6,left,a,g,voiced,6,right,0,2.78934598,115,aui
8,left,a,g,voiced,8,left,1,1.118349075,115,aui
3,left,a,d,voiced,9,left,1,3.05885005,115,aui
9,left,a,g,voiced,10,left,1,1.268799067,115,aui
9,left,a,d,voiced,11,left,1,1.034026146,115,aui
3,left,a,g,voiced,17,right,0,1.067261934,115,aui
10,left,a,d,voiced,19,right,0,2.536730051,115,aui
6,left,a,d,voiced,20,left,1,2.350998163,115,aui
1,left,a,d,voiced,22,right,0,2.401056051,115,aui
7,left,a,d,voiced,24,right,0,1.253153086,115,aui
10,left,a,g,voiced,26,left,1,1.962116003,115,aui
4,left,a,d,voiced,27,right,0,2.130629778,115,aui
8,left,a,d,voiced,30,left,1,10.37041998,115,aui
5,left,a,g,voiced,32,left,1,0.932638884,115,aui
2,left,a,d,voiced,34,right,0,1.86066699,115,aui
7,left,a,g,voiced,36,right,0,1.992866993,115,aui
1,left,a,g,voiced,37,right,0,0.983460903,115,aui
5,left,u,g,voiced,1,right,0,1.100591898,115,aui
1,left,u,g,voiced,4,right,0,1.304148912,115,aui
3,left,u,d,voiced,5,right,0,4.98463583,115,aui
10,left,u,g,voiced,7,left,1,1.033997059,115,aui
8,left,u,g,voiced,8,left,1,1.405371904,115,aui
1,left,u,d,voiced,11,left,1,3.262341976,115,aui
4,left,u,g,voiced,12,right,0,1.202784061,115,aui
8,left,u,d,voiced,15,left,1,1.050938129,115,aui
9,left,u,g,voiced,16,right,0,8.073662996,115,aui
5,left,u,d,voiced,17,right,0,1.522583008,115,aui
3,left,u,g,voiced,18,left,1,1.472397089,115,aui
6,left,u,g,voiced,21,right,0,3.782124043,115,aui
2,left,u,g,voiced,22,left,1,2.013499975,115,aui
7,left,u,d,voiced,24,left,1,1.115131855,115,aui
7,left,u,g,voiced,26,left,1,3.212218046,115,aui
10,left,u,d,voiced,27,left,1,2.181094885,115,aui
2,left,u,d,voiced,33,right,0,6.301805973,115,aui
6,left,u,d,voiced,34,left,1,2.518878937,115,aui
4,left,u,d,voiced,36,right,0,2.333296061,115,aui
9,left,u,d,voiced,37,left,1,1.421808004,115,aui
4,left,i,g,voiced,6,right,0,1.57428503,115,aui
6,left,i,d,voiced,7,left,1,3.17764616,115,aui
1,left,i,g,voiced,13,right,0,1.385022879,115,aui
8,left,i,g,voiced,14,right,0,7.463273048,115,aui
7,left,i,g,voiced,15,right,0,4.275429964,115,aui
5,left,i,g,voiced,17,right,0,1.013914108,115,aui
8,left,i,d,voiced,18,left,1,3.869135857,115,aui
4,left,i,d,voiced,19,left,1,2.890684128,115,aui
1,left,i,d,voiced,20,left,1,1.657976866,115,aui
10,left,i,d,voiced,22,left,1,1.13478303,115,aui
9,left,i,d,voiced,23,right,0,3.782662869,115,aui
2,left,i,d,voiced,27,right,0,1.101261139,115,aui
5,left,i,d,voiced,29,right,0,1.304073095,115,aui
9,left,i,g,voiced,30,right,0,8.96609807,115,aui
3,left,i,d,voiced,33,right,0,6.098134995,115,aui
10,left,i,g,voiced,34,right,0,1.675621986,115,aui
3,left,i,g,voiced,35,right,0,1.979373932,115,aui
6,left,i,g,voiced,36,right,0,1.489921808,115,aui
7,left,i,d,voiced,38,left,1,1.807071924,115,aui
2,left,i,g,voiced,39,right,0,1.20283103,115,aui
7,left,u,g,voiced,1,left,1,2.047104836,116,uai
3,left,u,g,voiced,2,left,1,2.299460173,116,uai
10,left,u,g,voiced,4,left,1,0.932515144,116,uai
6,left,u,d,voiced,5,left,1,1.370881081,116,uai
8,left,u,d,voiced,7,left,1,1.084676981,116,uai
5,left,u,g,voiced,8,right,0,0.998813868,116,uai
5,left,u,d,voiced,9,left,1,0.827447891,116,uai
1,left,u,d,voiced,11,right,0,0.898722172,116,uai
2,left,u,d,voiced,12,right,0,0.897593975,116,uai
7,left,u,d,voiced,14,left,1,1.760172129,116,uai
6,left,u,g,voiced,15,left,1,1.64192915,116,uai
4,left,u,d,voiced,16,left,1,1.471936941,116,uai
8,left,u,g,voiced,18,left,1,0.796875,116,uai
9,left,u,g,voiced,25,left,1,0.948998928,116,uai
1,left,u,g,voiced,26,right,0,1.167911053,116,uai
4,left,u,g,voiced,28,left,1,2.604248047,116,uai
3,left,u,d,voiced,30,right,0,1.165510893,116,uai
10,left,u,d,voiced,32,left,1,0.881337881,116,uai
9,left,u,d,voiced,33,left,1,0.763706923,116,uai
2,left,u,g,voiced,34,right,0,0.948512077,116,uai
2,left,a,g,voiced,1,right,0,0.949065924,116,uai
9,left,a,d,voiced,2,left,1,0.881510973,116,uai
5,left,a,g,voiced,3,left,1,1.252418041,116,uai
6,left,a,g,voiced,4,left,1,0.982653856,116,uai
8,left,a,d,voiced,7,left,1,0.814404011,116,uai
1,left,a,d,voiced,8,left,1,0.713268042,116,uai
3,left,a,g,voiced,11,left,1,1.034215927,116,uai
4,left,a,d,voiced,13,left,1,0.762578964,116,uai
3,left,a,d,voiced,15,right,0,3.042639017,116,uai
1,left,a,g,voiced,16,right,0,0.966453075,116,uai
4,left,a,g,voiced,18,left,1,1.591188908,116,uai
8,left,a,g,voiced,20,left,1,1.050776005,116,uai
9,left,a,g,voiced,23,left,1,0.864420176,116,uai
7,left,a,d,voiced,27,left,1,1.303483963,116,uai
5,left,a,d,voiced,28,left,1,1.165597916,116,uai
2,left,a,d,voiced,30,right,0,1.067065954,116,uai
10,left,a,g,voiced,34,left,1,1.218710899,116,uai
10,left,a,d,voiced,35,left,1,0.949640989,116,uai
7,left,a,g,voiced,38,left,1,0.898556948,116,uai
6,left,a,d,voiced,39,left,1,1.050915957,116,uai
5,left,i,g,voiced,0,right,0,0.962961912,116,uai
1,left,i,g,voiced,1,right,0,1.032852888,116,uai
10,left,i,g,voiced,2,left,1,1.354225874,116,uai
2,left,i,d,voiced,3,right,0,0.999392033,116,uai
4,left,i,g,voiced,4,left,1,0.813527107,116,uai
2,left,i,g,voiced,6,right,0,1.573175907,116,uai
6,left,i,d,voiced,8,left,1,1.435589075,116,uai
9,left,i,g,voiced,9,left,1,1.101511002,116,uai
7,left,i,g,voiced,10,left,1,0.844630957,116,uai
5,left,i,d,voiced,11,right,0,1.084348917,116,uai
3,left,i,d,voiced,12,left,1,0.830235958,116,uai
8,left,i,g,voiced,15,left,1,0.915463924,116,uai
6,left,i,g,voiced,17,left,1,0.881042957,116,uai
8,left,i,d,voiced,19,left,1,0.928976059,116,uai
4,left,i,d,voiced,22,left,1,0.813677073,116,uai
9,left,i,d,voiced,23,left,1,2.958897114,116,uai
1,left,i,d,voiced,25,right,0,1.368368864,116,uai
10,left,i,d,voiced,30,left,1,0.881348133,116,uai
3,left,i,g,voiced,31,right,0,1.08446908,116,uai
7,left,i,d,voiced,35,left,1,1.422332048,116,uai
5,left,i,g,voiced,0,left,1,6.889198065,117,iau
7,left,i,g,voiced,2,left,1,1.266820908,117,iau
1,left,i,g,voiced,3,right,0,1.15198493,117,iau
2,left,i,d,voiced,4,right,0,1.472844839,117,iau
8,left,i,g,voiced,5,left,1,1.354701996,117,iau
2,left,i,g,voiced,6,right,0,1.049831867,117,iau
6,left,i,d,voiced,14,right,0,1.927572012,117,iau
5,left,i,d,voiced,16,right,0,1.456204176,117,iau
4,left,i,g,voiced,18,right,0,1.084537029,117,iau
7,left,i,d,voiced,20,left,1,2.232877016,117,iau
9,left,i,g,voiced,21,left,1,1.0170331,117,iau
9,left,i,d,voiced,22,left,1,1.28612709,117,iau
1,left,i,d,voiced,24,right,0,3.497538805,117,iau
10,left,i,g,voiced,26,left,1,1.621624947,117,iau
8,left,i,d,voiced,30,right,0,1.488873005,117,iau
3,left,i,g,voiced,32,right,0,1.321131945,117,iau
6,left,i,g,voiced,33,right,0,4.409339905,117,iau
3,left,i,d,voiced,36,right,0,1.100990057,117,iau
4,left,i,d,voiced,37,right,0,2.030002117,117,iau
10,left,i,d,voiced,38,right,0,1.588090897,117,iau
6,left,a,d,voiced,0,right,0,2.533378124,117,iau
8,left,a,g,voiced,1,right,0,1.47160697,117,iau
10,left,a,g,voiced,4,right,0,1.168113947,117,iau
4,left,a,g,voiced,6,right,0,1.201913834,117,iau
9,left,a,g,voiced,8,right,0,1.219084024,117,iau
2,left,a,g,voiced,9,right,0,1.067999125,117,iau
8,left,a,d,voiced,11,right,0,1.486522913,117,iau
7,left,a,d,voiced,12,right,0,1.134524107,117,iau
5,left,a,d,voiced,13,right,0,0.878906012,117,iau
3,left,a,g,voiced,14,right,0,1.084687948,117,iau
1,left,a,d,voiced,18,right,0,1.131988049,117,iau
1,left,a,g,voiced,23,right,0,0.898901939,117,iau
2,left,a,d,voiced,24,right,0,0.932722092,117,iau
6,left,a,g,voiced,26,left,1,1.435635805,117,iau
3,left,a,d,voiced,27,left,1,6.115455866,117,iau
9,left,a,d,voiced,30,left,1,1.860986948,117,iau
4,left,a,d,voiced,31,right,0,1.135557175,117,iau
5,left,a,g,voiced,32,left,1,1.47298193,117,iau
7,left,a,g,voiced,34,left,1,1.759322882,117,iau
10,left,a,d,voiced,38,left,1,1.084597111,117,iau
8,left,u,d,voiced,0,right,0,2.282280922,117,iau
8,left,u,g,voiced,2,right,0,1.016765118,117,iau
2,left,u,d,voiced,4,right,0,0.949584007,117,iau
3,left,u,g,voiced,5,right,0,1.016144991,117,iau
2,left,u,g,voiced,6,right,0,0.898208141,117,iau
10,left,u,g,voiced,9,left,1,1.269412041,117,iau
7,left,u,g,voiced,11,left,1,0.999689102,117,iau
6,left,u,g,voiced,12,left,1,0.932596922,117,iau
1,left,u,d,voiced,16,right,0,1.050107956,117,iau
1,left,u,g,voiced,18,right,0,1.030704975,117,iau
4,left,u,g,voiced,19,right,0,1.047522068,117,iau
3,left,u,d,voiced,20,right,0,0.999043941,117,iau
5,left,u,d,voiced,22,right,0,0.98230505,117,iau
4,left,u,d,voiced,25,right,0,1.067275047,117,iau
6,left,u,d,voiced,27,right,0,1.388214111,117,iau
10,left,u,d,voiced,31,left,1,1.250163078,117,iau
5,left,u,g,voiced,33,left,1,1.287281036,117,iau
9,left,u,d,voiced,34,left,1,4.477760077,117,iau
7,left,u,d,voiced,36,left,1,1.337888002,117,iau
9,left,u,g,voiced,39,left,1,1.151854992,117,iau
10,left,i,g,voiced,0,left,1,0.999432087,118,iua
4,left,i,g,voiced,2,left,1,0.780699015,118,iua
9,left,i,g,voiced,4,left,1,0.865178823,118,iua
9,left,i,d,voiced,5,left,1,1.607959986,118,iua
3,left,i,g,voiced,6,right,0,0.931097984,118,iua
6,left,i,g,voiced,7,left,1,0.864501953,118,iua
8,left,i,g,voiced,8,left,1,0.848473072,118,iua
1,left,i,g,voiced,12,left,1,1.03349185,118,iua
6,left,i,d,voiced,14,left,1,0.865135908,118,iua
4,left,i,d,voiced,16,left,1,0.780674219,118,iua
2,left,i,d,voiced,18,right,0,0.898266792,118,iua
7,left,i,d,voiced,23,left,1,0.965427876,118,iua
3,left,i,d,voiced,24,right,0,0.948716879,118,iua
5,left,i,g,voiced,25,right,0,1.284025908,118,iua
10,left,i,d,voiced,26,left,1,0.83079505,118,iua
5,left,i,d,voiced,28,right,0,1.03399682,118,iua
2,left,i,g,voiced,29,left,1,1.405601978,118,iua
1,left,i,d,voiced,31,right,0,0.915972948,118,iua
7,left,i,g,voiced,32,left,1,1.168685913,118,iua
8,left,i,d,voiced,35,left,1,1.186177015,118,iua
7,left,u,d,voiced,4,left,1,1.131631136,118,iua
6,left,u,g,voiced,8,right,0,0.847631931,118,iua
6,left,u,d,voiced,9,left,1,1.167837143,118,iua
5,left,u,g,voiced,10,left,1,2.536499023,118,iua
3,left,u,g,voiced,12,right,0,0.848143101,118,iua
9,left,u,d,voiced,13,left,1,0.864596128,118,iua
8,left,u,d,voiced,14,left,1,0.712617874,118,iua
3,left,u,d,voiced,18,right,0,1.995836973,118,iua
5,left,u,d,voiced,19,right,0,0.948362112,118,iua
2,left,u,d,voiced,20,right,0,0.844942093,118,iua
1,left,u,g,voiced,22,right,0,0.915076017,118,iua
2,left,u,g,voiced,23,right,0,1.016074896,118,iua
7,left,u,g,voiced,26,left,1,0.915844202,118,iua
8,left,u,g,voiced,28,left,1,0.898477077,118,iua
1,left,u,d,voiced,29,right,0,0.96645999,118,iua
9,left,u,g,voiced,31,left,1,0.912228107,118,iua
4,left,u,g,voiced,33,left,1,1.286520004,118,iua
10,left,u,d,voiced,34,left,1,0.476276159,118,iua
10,left,u,g,voiced,36,left,1,0.99909997,118,iua
4,left,u,d,voiced,37,right,0,0.949769974,118,iua
5,left,a,g,voiced,0,right,0,2.502897978,118,iua
7,left,a,d,voiced,2,right,0,1.355678797,118,iua
8,left,a,g,voiced,5,left,1,1.186146975,118,iua
9,left,a,d,voiced,6,left,1,1.387850046,118,iua
10,left,a,g,voiced,8,left,1,1.101577997,118,iua
4,left,a,d,voiced,9,right,0,0.965700865,118,iua
6,left,a,d,voiced,10,right,0,0.949149132,118,iua
5,left,a,d,voiced,12,right,0,1.89420104,118,iua
1,left,a,d,voiced,16,right,0,2.350931883,118,iua
1,left,a,g,voiced,17,right,0,1.03389883,118,iua
10,left,a,d,voiced,18,left,1,1.303634882,118,iua
3,left,a,g,voiced,20,right,0,0.796938896,118,iua
9,left,a,g,voiced,21,left,1,1.657873154,118,iua
4,left,a,g,voiced,29,right,0,0.912356853,118,iua
7,left,a,g,voiced,30,right,0,1.793433905,118,iua
8,left,a,d,voiced,31,left,1,0.848740101,118,iua
2,left,a,d,voiced,32,right,0,0.946120024,118,iua
3,left,a,d,voiced,34,right,0,0.881019115,118,iua
2,left,a,g,voiced,38,right,0,0.729098082,118,iua
6,left,a,g,voiced,39,right,0,1.05013299,118,iua
1,right,u,d,voiced,0,left,0,21.73042417,120,uia
9,right,u,g,voiced,2,right,1,2.181257963,120,uia
6,right,u,d,voiced,3,left,0,1.52331996,120,uia
8,right,u,g,voiced,4,left,0,1.896266937,120,uia
9,right,u,d,voiced,6,right,1,1.286181211,120,uia
2,right,u,d,voiced,7,left,0,1.743040085,120,uia
2,right,u,g,voiced,10,left,0,2.130241871,120,uia
5,right,u,g,voiced,12,right,1,1.741621971,120,uia
4,right,u,d,voiced,15,left,0,2.333447933,120,uia
5,right,u,d,voiced,17,left,0,1.995112896,120,uia
3,right,u,g,voiced,18,left,0,2.585688114,120,uia
8,right,u,d,voiced,28,right,1,1.303862095,120,uia
10,right,u,d,voiced,29,right,1,1.79518795,120,uia
4,right,u,g,voiced,31,left,0,2.672389984,120,uia
1,right,u,g,voiced,33,left,0,2.266009092,120,uia
10,right,u,g,voiced,35,right,1,1.861278057,120,uia
7,right,u,d,voiced,36,right,1,2.063218117,120,uia
7,right,u,g,voiced,37,right,1,2.654406071,120,uia
6,right,u,g,voiced,38,right,1,1.726361036,120,uia
3,right,u,d,voiced,39,left,0,1.016662121,120,uia
10,right,i,d,voiced,2,right,1,2.046509027,120,uia
4,right,i,d,voiced,3,left,0,1.52334094,120,uia
2,right,i,g,voiced,4,left,0,1.874743938,120,uia
1,right,i,g,voiced,5,left,0,1.658128977,120,uia
10,right,i,g,voiced,8,right,1,1.557440996,120,uia
8,right,i,g,voiced,10,right,1,1.522623062,120,uia
1,right,i,d,voiced,11,left,0,1.505558014,120,uia
8,right,i,d,voiced,15,right,1,1.437568903,120,uia
6,right,i,d,voiced,16,right,1,1.658764124,120,uia
3,right,i,d,voiced,19,left,0,1.556111097,120,uia
9,right,i,d,voiced,21,right,1,1.151375055,120,uia
5,right,i,g,voiced,26,left,0,1.673872948,120,uia
4,right,i,g,voiced,29,right,1,1.150936842,120,uia
9,right,i,g,voiced,30,right,1,1.148982048,120,uia
7,right,i,d,voiced,31,right,1,1.404961109,120,uia
5,right,i,d,voiced,33,right,1,1.20164299,120,uia
3,right,i,g,voiced,35,right,1,1.840893984,120,uia
7,right,i,g,voiced,36,left,0,2.856846094,120,uia
2,right,i,d,voiced,37,left,0,1.688924074,120,uia
6,right,i,g,voiced,39,left,0,1.690647841,120,uia
3,right,a,d,voiced,0,left,0,2.988967896,120,uia
6,right,a,g,voiced,3,right,1,3.194552898,120,uia
9,right,a,g,voiced,4,right,1,2.180388927,120,uia
1,right,a,g,voiced,7,left,0,2.249882936,120,uia
5,right,a,g,voiced,8,left,0,1.859249115,120,uia
3,right,a,g,voiced,10,left,0,1.942425966,120,uia
1,right,a,d,voiced,11,left,0,2.702226877,120,uia
7,right,a,d,voiced,14,left,0,1.488755941,120,uia
6,right,a,d,voiced,16,right,1,1.202667952,120,uia
8,right,a,d,voiced,17,right,1,0.999734879,120,uia
8,right,a,g,voiced,20,right,1,1.151872873,120,uia
4,right,a,g,voiced,22,right,1,1.355015039,120,uia
5,right,a,d,voiced,27,right,1,1.894106865,120,uia
10,right,a,g,voiced,28,right,1,2.874096155,120,uia
2,right,a,g,voiced,29,right,1,1.945024967,120,uia
10,right,a,d,voiced,30,right,1,2.518776894,120,uia
7,right,a,g,voiced,34,left,0,1.016180992,120,uia
2,right,a,d,voiced,37,left,0,2.400315046,120,uia
9,right,a,d,voiced,38,right,1,1.354892969,120,uia
4,right,a,d,voiced,39,left,0,1.098137856,120,uia
3,right,a,d,voiced,2,left,0,1.911798,128,aiu
9,right,a,g,voiced,4,right,1,1.287343025,128,aiu
4,right,a,d,voiced,5,left,0,1.135211945,128,aiu
2,right,a,g,voiced,8,left,0,1.270473003,128,aiu
2,right,a,d,voiced,11,left,0,1.09837389,128,aiu
5,right,a,g,voiced,14,right,1,1.418766022,128,aiu
3,right,a,g,voiced,17,left,0,1.438277006,128,aiu
6,right,a,g,voiced,18,left,0,1.152990103,128,aiu
6,right,a,d,voiced,19,right,1,1.148752928,128,aiu
9,right,a,d,voiced,20,left,0,1.65545702,128,aiu
8,right,a,g,voiced,23,right,1,1.202737093,128,aiu
10,right,a,d,voiced,25,right,1,0.864561081,128,aiu
7,right,a,d,voiced,28,left,0,2.199774981,128,aiu
1,right,a,g,voiced,30,left,0,1.809662104,128,aiu
5,right,a,d,voiced,33,right,1,2.080001831,128,aiu
8,right,a,d,voiced,34,right,1,1.844435215,128,aiu
4,right,a,g,voiced,35,left,0,1.320489883,128,aiu
10,right,a,g,voiced,36,left,0,1.741816044,128,aiu
7,right,a,g,voiced,38,left,0,1.388571978,128,aiu
1,right,a,d,voiced,39,left,0,1.269676209,128,aiu
3,right,i,d,voiced,0,left,0,2.533348084,128,aiu
8,right,i,g,voiced,1,left,0,2.621086836,128,aiu
1,right,i,g,voiced,2,left,0,1.300813913,128,aiu
2,right,i,d,voiced,4,left,0,1.250198841,128,aiu
5,right,i,g,voiced,6,right,1,1.404240131,128,aiu
1,right,i,d,voiced,7,left,0,1.286243916,128,aiu
6,right,i,d,voiced,8,left,0,1.809503078,128,aiu
7,right,i,d,voiced,18,right,1,1.371645927,128,aiu
9,right,i,g,voiced,23,right,1,1.049528122,128,aiu
7,right,i,g,voiced,24,right,1,1.27033186,128,aiu
8,right,i,d,voiced,25,right,1,1.452553988,128,aiu
10,right,i,g,voiced,29,right,1,1.067240953,128,aiu
9,right,i,d,voiced,30,right,1,1.050879955,128,aiu
2,right,i,g,voiced,31,left,0,1.252955198,128,aiu
4,right,i,g,voiced,33,right,1,1.067903996,128,aiu
6,right,i,g,voiced,35,left,0,1.64134407,128,aiu
10,right,i,d,voiced,36,right,1,1.134812832,128,aiu
5,right,i,d,voiced,37,left,0,1.303126812,128,aiu
4,right,i,d,voiced,38,left,0,1.270541906,128,aiu
3,right,i,g,voiced,39,left,0,1.739715815,128,aiu
10,right,u,g,voiced,0,right,1,2.097607136,128,aiu
1,right,u,g,voiced,2,left,0,1.21617794,128,aiu
3,right,u,d,voiced,3,left,0,3.88663578,128,aiu
4,right,u,d,voiced,4,left,0,1.995896816,128,aiu
8,right,u,d,voiced,6,right,1,1.371816158,128,aiu
5,right,u,d,voiced,9,left,0,1.285665035,128,aiu
1,right,u,d,voiced,10,left,0,1.017149925,128,aiu
6,right,u,g,voiced,11,right,1,0.866418123,128,aiu
9,right,u,d,voiced,12,right,1,1.203340054,128,aiu
8,right,u,g,voiced,13,right,1,1.40218401,128,aiu
2,right,u,d,voiced,14,left,0,1.199498177,128,aiu
4,right,u,g,voiced,15,left,0,1.334888935,128,aiu
9,right,u,g,voiced,20,right,1,1.016738892,128,aiu
7,right,u,d,voiced,22,left,0,1.300653934,128,aiu
3,right,u,g,voiced,23,left,0,1.030610085,128,aiu
2,right,u,g,voiced,25,left,0,2.468369961,128,aiu
5,right,u,g,voiced,28,right,1,1.033406019,128,aiu
10,right,u,d,voiced,29,right,1,1.236800909,128,aiu
6,right,u,d,voiced,30,left,0,1.283858061,128,aiu
7,right,u,g,voiced,32,left,0,3.464930058,128,aiu
2,right,a,g,voiced,2,left,0,2.654247046,122,aui
9,right,a,g,voiced,6,right,1,2.231585026,122,aui
1,right,a,d,voiced,7,left,0,2.317167997,122,aui
10,right,a,d,voiced,8,right,1,4.816119909,122,aui
9,right,a,d,voiced,9,right,1,3.345319033,122,aui
4,right,a,d,voiced,10,left,0,4.325970888,122,aui
1,right,a,g,voiced,13,left,0,2.587351084,122,aui
6,right,a,g,voiced,14,right,1,2.31389904,122,aui
3,right,a,d,voiced,16,left,0,1.776751041,122,aui
2,right,a,d,voiced,17,left,0,1.70866394,122,aui
7,right,a,g,voiced,19,right,1,2.653645039,122,aui
5,right,a,g,voiced,20,right,1,2.499619961,122,aui
4,right,a,g,voiced,22,left,0,2.40104413,122,aui
8,right,a,d,voiced,26,right,1,2.060717106,122,aui
10,right,a,g,voiced,30,right,1,1.909030914,122,aui
7,right,a,d,voiced,32,right,1,1.775328159,122,aui
6,right,a,d,voiced,35,right,1,1.959486008,122,aui
8,right,a,g,voiced,36,right,1,2.567080021,122,aui
3,right,a,g,voiced,37,left,0,3.043251991,122,aui
5,right,a,d,voiced,39,right,1,1.945651054,122,aui
4,right,u,d,voiced,0,right,1,4.241050005,122,aui
9,right,u,d,voiced,1,right,1,2.080821991,122,aui
6,right,u,d,voiced,2,left,0,1.522772074,122,aui
8,right,u,g,voiced,3,right,1,1.691818953,122,aui
10,right,u,g,voiced,4,right,1,1.793184996,122,aui
1,right,u,d,voiced,8,left,0,2.873790026,122,aui
7,right,u,g,voiced,9,right,1,2.941467047,122,aui
2,right,u,g,voiced,11,left,0,2.096639156,122,aui
3,right,u,d,voiced,13,left,0,1.624943972,122,aui
4,right,u,g,voiced,14,left,0,3.328303099,122,aui
3,right,u,g,voiced,17,left,0,1.556921005,122,aui
10,right,u,d,voiced,22,right,1,3.903811932,122,aui
2,right,u,d,voiced,23,left,0,1.134381771,122,aui
7,right,u,d,voiced,24,left,0,2.33415103,122,aui
5,right,u,g,voiced,27,left,0,3.465289116,122,aui
6,right,u,g,voiced,28,right,1,2.587332964,122,aui
1,right,u,g,voiced,30,left,0,1.371686935,122,aui
5,right,u,d,voiced,34,right,1,2.182048082,122,aui
9,right,u,g,voiced,35,right,1,1.894356966,122,aui
8,right,u,d,voiced,39,right,1,1.961838961,122,aui
6,right,i,d,voiced,0,left,0,2.600603104,122,aui
4,right,i,g,voiced,3,left,0,3.039849997,122,aui
5,right,i,d,voiced,4,right,1,2.26650095,122,aui
9,right,i,g,voiced,7,right,1,1.858062983,122,aui
10,right,i,g,voiced,11,right,1,2.080479145,122,aui
4,right,i,d,voiced,14,left,0,4.290857077,122,aui
3,right,i,d,voiced,15,left,0,1.978559971,122,aui
9,right,i,d,voiced,16,right,1,1.590129137,122,aui
1,right,i,g,voiced,18,left,0,2.536642075,122,aui
2,right,i,g,voiced,19,left,0,2.721806049,122,aui
7,right,i,d,voiced,22,right,1,2.333197117,122,aui
8,right,i,d,voiced,23,right,1,7.092220068,122,aui
10,right,i,d,voiced,24,right,1,1.993098974,122,aui
6,right,i,g,voiced,26,right,1,2.350300074,122,aui
5,right,i,g,voiced,27,left,0,4.410175085,122,aui
2,right,i,d,voiced,30,left,0,3.51543498,122,aui
7,right,i,g,voiced,32,right,1,1.336972952,122,aui
3,right,i,g,voiced,34,left,0,2.688657045,122,aui
8,right,i,g,voiced,35,right,1,1.269346952,122,aui
1,right,i,d,voiced,38,left,0,1.506546974,122,aui
3,right,i,d,voiced,0,left,0,3.550325871,123,iau
1,right,i,g,voiced,1,left,0,1.505757093,123,iau
6,right,i,g,voiced,2,right,1,1.84343195,123,iau
9,right,i,g,voiced,3,right,1,1.573621035,123,iau
7,right,i,g,voiced,5,left,0,1.608052969,123,iau
10,right,i,d,voiced,7,right,1,1.30347991,123,iau
9,right,i,d,voiced,9,right,1,1.523382902,123,iau
7,right,i,d,voiced,10,right,1,2.114104033,123,iau
6,right,i,d,voiced,11,right,1,1.607748032,123,iau
8,right,i,g,voiced,12,left,0,3.532971144,123,iau
8,right,i,d,voiced,17,right,1,1.320681095,123,iau
5,right,i,d,voiced,25,left,0,1.674407959,123,iau
10,right,i,g,voiced,26,right,1,1.472856045,123,iau
3,right,i,g,voiced,28,left,0,1.422262192,123,iau
4,right,i,g,voiced,29,left,0,1.473043919,123,iau
1,right,i,d,voiced,34,left,0,1.28719902,123,iau
2,right,i,d,voiced,35,left,0,1.370764017,123,iau
5,right,i,g,voiced,36,left,0,2.53344202,123,iau
4,right,i,d,voiced,37,left,0,1.48880887,123,iau
2,right,i,g,voiced,38,left,0,1.824252844,123,iau
9,right,a,g,voiced,3,right,1,1.455343962,123,iau
3,right,a,d,voiced,5,left,0,1.233594894,123,iau
7,right,a,d,voiced,6,left,0,1.574422121,123,iau
1,right,a,d,voiced,13,left,0,1.488743067,123,iau
2,right,a,g,voiced,14,left,0,1.65747714,123,iau
8,right,a,g,voiced,16,left,0,1.438510895,123,iau
10,right,a,g,voiced,18,left,0,1.891793013,123,iau
3,right,a,g,voiced,21,left,0,1.94503808,123,iau
6,right,a,g,voiced,24,right,1,1.320576191,123,iau
5,right,a,g,voiced,25,right,1,1.556562185,123,iau
6,right,a,d,voiced,26,right,1,2.062819958,123,iau
2,right,a,d,voiced,28,right,1,1.979989052,123,iau
9,right,a,d,voiced,29,right,1,1.793781042,123,iau
7,right,a,g,voiced,30,left,0,1.115089178,123,iau
4,right,a,g,voiced,32,left,0,1.54062891,123,iau
10,right,a,d,voiced,33,right,1,1.165674925,123,iau
4,right,a,d,voiced,36,left,0,1.573525906,123,iau
5,right,a,d,voiced,37,left,0,1.928874016,123,iau
1,right,a,g,voiced,38,left,0,1.758935928,123,iau
8,right,a,d,voiced,39,right,1,1.114894867,123,iau
4,right,u,d,voiced,1,left,0,1.557405949,123,iau
7,right,u,g,voiced,2,right,1,1.438244104,123,iau
8,right,u,g,voiced,5,right,1,1.285457134,123,iau
8,right,u,d,voiced,6,right,1,1.351519823,123,iau
5,right,u,g,voiced,7,right,1,1.455388069,123,iau
10,right,u,d,voiced,9,right,1,1.826534987,123,iau
6,right,u,d,voiced,14,left,0,1.286128998,123,iau
4,right,u,g,voiced,16,left,0,1.590857029,123,iau
1,right,u,d,voiced,17,left,0,1.587583065,123,iau
6,right,u,g,voiced,19,left,0,1.455468893,123,iau
9,right,u,g,voiced,20,left,0,1.874821901,123,iau
3,right,u,d,voiced,21,left,0,1.48873806,123,iau
2,right,u,g,voiced,24,left,0,2.080181122,123,iau
9,right,u,d,voiced,26,left,0,1.421943188,123,iau
7,right,u,d,voiced,28,left,0,1.455914974,123,iau
3,right,u,g,voiced,29,left,0,1.353946924,123,iau
2,right,u,d,voiced,33,left,0,2.094451904,123,iau
10,right,u,g,voiced,34,right,1,1.303674936,123,iau
5,right,u,d,voiced,36,left,0,1.556513071,123,iau
1,right,u,g,voiced,37,left,0,1.489746094,123,iau
9,right,i,d,voiced,1,right,1,1.556806803,124,iua
6,right,i,d,voiced,4,right,1,0.864489794,124,iua
3,right,i,g,voiced,8,right,1,2.130304098,124,iua
8,right,i,d,voiced,10,left,0,0.932514906,124,iua
7,right,i,d,voiced,13,right,1,0.779594898,124,iua
2,right,i,d,voiced,14,right,1,1.117058992,124,iua
5,right,i,g,voiced,15,left,0,1.506641865,124,iua
4,right,i,g,voiced,16,right,1,1.708665848,124,iua
10,right,i,d,voiced,17,right,1,1.098383904,124,iua
9,right,i,g,voiced,18,right,1,0.912321091,124,iua
7,right,i,g,voiced,21,right,1,0.965851068,124,iua
6,right,i,g,voiced,22,right,1,2.045737028,124,iua
1,right,i,g,voiced,23,left,0,1.421546936,124,iua
4,right,i,d,voiced,25,right,1,1.216193914,124,iua
2,right,i,g,voiced,30,left,0,1.148725986,124,iua
5,right,i,d,voiced,32,left,0,1.978091002,124,iua
10,right,i,g,voiced,33,right,1,0.878526926,124,iua
3,right,i,d,voiced,34,left,0,1.101022005,124,iua
1,right,i,d,voiced,36,left,0,1.101758003,124,iua
8,right,i,g,voiced,37,right,1,2.638106108,124,iua
3,right,u,g,voiced,0,left,0,1.570927143,124,iua
1,right,u,d,voiced,4,left,0,1.066433191,124,iua
10,right,u,d,voiced,5,right,1,1.27059412,124,iua
1,right,u,g,voiced,6,left,0,0.898978949,124,iua
9,right,u,g,voiced,8,right,1,1.726294994,124,iua
10,right,u,g,voiced,9,right,1,0.999063015,124,iua
2,right,u,g,voiced,10,left,0,1.351580143,124,iua
2,right,u,d,voiced,11,left,0,1.912062168,124,iua
7,right,u,d,voiced,15,right,1,1.978647947,124,iua
5,right,u,g,voiced,19,right,1,0.831480026,124,iua
3,right,u,d,voiced,20,right,1,1.368253946,124,iua
8,right,u,d,voiced,22,right,1,1.067821026,124,iua
9,right,u,d,voiced,23,right,1,0.898917913,124,iua
5,right,u,d,voiced,25,right,1,1.506688833,124,iua
6,right,u,d,voiced,26,right,1,1.202772141,124,iua
4,right,u,d,voiced,27,right,1,1.269776106,124,iua
7,right,u,g,voiced,30,right,1,1.050168037,124,iua
6,right,u,g,voiced,31,right,1,0.897677898,124,iua
8,right,u,g,voiced,36,right,1,0.796718121,124,iua
4,right,u,g,voiced,37,right,1,0.949877977,124,iua
9,right,a,g,voiced,0,left,0,0.949656963,124,iua
9,right,a,d,voiced,1,right,1,0.948505878,124,iua
8,right,a,g,voiced,2,right,1,1.489732981,124,iua
2,right,a,d,voiced,5,left,0,0.931596994,124,iua
7,right,a,d,voiced,8,right,1,1.098255873,124,iua
5,right,a,d,voiced,9,right,1,1.152411222,124,iua
5,right,a,g,voiced,10,right,1,0.983235121,124,iua
1,right,a,g,voiced,14,left,0,0.813691139,124,iua
10,right,a,d,voiced,19,right,1,1.759737968,124,iua
3,right,a,d,voiced,21,left,0,1.334317923,124,iua
4,right,a,d,voiced,22,left,0,1.387123108,124,iua
3,right,a,g,voiced,23,left,0,1.607014894,124,iua
2,right,a,g,voiced,25,left,0,1.945700884,124,iua
6,right,a,g,voiced,27,right,1,0.864501953,124,iua
4,right,a,g,voiced,28,right,1,0.813758135,124,iua
8,right,a,d,voiced,29,right,1,0.882025003,124,iua
1,right,a,d,voiced,31,left,0,0.847061872,124,iua
6,right,a,d,voiced,34,right,1,1.844465017,124,iua
10,right,a,g,voiced,35,right,1,1.945881128,124,iua
7,right,a,g,voiced,39,right,1,1.573542118,124,iua
1,right,u,g,voiced,0,left,0,4.376960993,125,uai
10,right,u,g,voiced,2,right,1,1.860702038,125,uai
5,right,u,g,voiced,4,left,0,3.143789053,125,uai
1,right,u,d,voiced,5,left,0,1.877887011,125,uai
10,right,u,d,voiced,10,right,1,1.101037025,125,uai
5,right,u,d,voiced,12,left,0,1.100293875,125,uai
7,right,u,d,voiced,14,left,0,2.198958158,125,uai
4,right,u,g,voiced,17,left,0,1.016593933,125,uai
8,right,u,g,voiced,19,right,1,1.132460833,125,uai
4,right,u,d,voiced,20,left,0,1.030719996,125,uai
6,right,u,d,voiced,22,left,0,1.100929976,125,uai
9,right,u,d,voiced,23,right,1,1.452657938,125,uai
2,right,u,d,voiced,26,left,0,0.932023048,125,uai
3,right,u,g,voiced,27,left,0,2.347440958,125,uai
8,right,u,d,voiced,29,left,0,1.300693035,125,uai
9,right,u,g,voiced,30,left,0,1.116994858,125,uai
2,right,u,g,voiced,34,right,1,1.184474945,125,uai
7,right,u,g,voiced,35,left,0,3.904710054,125,uai
6,right,u,g,voiced,37,left,0,1.92856884,125,uai
3,right,u,d,voiced,39,left,0,1.303505898,125,uai
6,right,a,g,voiced,1,right,1,1.16822505,125,uai
7,right,a,d,voiced,4,right,1,0.914703131,125,uai
1,right,a,d,voiced,8,left,0,0.966449976,125,uai
4,right,a,g,voiced,9,right,1,0.848191977,125,uai
2,right,a,g,voiced,10,right,1,0.982070923,125,uai
3,right,a,d,voiced,12,left,0,1.016730785,125,uai
1,right,a,g,voiced,14,left,0,0.982996941,125,uai
7,right,a,g,voiced,17,right,1,1.148865223,125,uai
8,right,a,d,voiced,18,left,0,0.745671034,125,uai
8,right,a,g,voiced,20,right,1,1.674706936,125,uai
5,right,a,d,voiced,21,left,0,0.830229998,125,uai
3,right,a,g,voiced,22,left,0,1.321224928,125,uai
4,right,a,d,voiced,24,left,0,1.20282793,125,uai
6,right,a,d,voiced,26,right,1,1.118608952,125,uai
9,right,a,g,voiced,28,left,0,0.89885807,125,uai
2,right,a,d,voiced,29,left,0,0.830505133,125,uai
10,right,a,d,voiced,31,right,1,1.100959063,125,uai
9,right,a,d,voiced,34,right,1,1.317392826,125,uai
10,right,a,g,voiced,37,right,1,2.030591965,125,uai
5,right,a,g,voiced,39,left,0,1.084462881,125,uai
10,right,i,d,voiced,0,right,1,2.046416998,125,uai
5,right,i,g,voiced,2,right,1,1.978978872,125,uai
1,right,i,d,voiced,4,left,0,0.881213903,125,uai
8,right,i,d,voiced,5,left,0,1.455113888,125,uai
4,right,i,g,voiced,6,left,0,0.915258884,125,uai
4,right,i,d,voiced,7,left,0,1.252781153,125,uai
2,right,i,g,voiced,14,left,0,1.016569853,125,uai
2,right,i,d,voiced,15,left,0,1.235215187,125,uai
3,right,i,d,voiced,16,left,0,0.932117939,125,uai
7,right,i,d,voiced,17,left,0,2.146703005,125,uai
1,right,i,g,voiced,18,left,0,1.655456781,125,uai
9,right,i,g,voiced,22,right,1,1.269658089,125,uai
3,right,i,g,voiced,23,right,1,0.99960804,125,uai
7,right,i,g,voiced,24,right,1,1.117583036,125,uai
6,right,i,d,voiced,26,right,1,1.270323992,125,uai
10,right,i,g,voiced,29,right,1,1.486558199,125,uai
9,right,i,d,voiced,30,right,1,1.337288141,125,uai
6,right,i,g,voiced,31,left,0,1.269672155,125,uai
5,right,i,d,voiced,33,left,0,1.101485968,125,uai
8,right,i,g,voiced,37,left,0,1.168649197,125,uai
7,left,a,t,voiceless,2,right,0,1.340953827,126,aiu
3,left,a,t,voiceless,4,right,0,1.422956944,126,aiu
1,left,a,k,voiceless,6,right,0,1.186918974,126,aiu
10,left,a,t,voiceless,10,left,1,1.724227905,126,aiu
10,left,a,k,voiceless,11,left,1,2.442564964,126,aiu
9,left,a,t,voiceless,13,left,1,1.089884996,126,aiu
6,left,a,t,voiceless,14,left,1,1.474313021,126,aiu
9,left,a,k,voiceless,15,left,1,1.790558815,126,aiu
5,left,a,t,voiceless,16,left,1,1.74093914,126,aiu
6,left,a,k,voiceless,17,left,1,1.524052143,126,aiu
4,left,a,k,voiceless,19,right,0,2.777480841,126,aiu
1,left,a,t,voiceless,22,right,0,1.757449865,126,aiu
8,left,a,k,voiceless,24,right,0,2.441983938,126,aiu
2,left,a,k,voiceless,25,right,0,1.106745958,126,aiu
4,left,a,t,voiceless,27,right,0,1.34077096,126,aiu
8,left,a,t,voiceless,31,left,1,2.573481083,126,aiu
3,left,a,k,voiceless,32,right,0,2.777660847,126,aiu
5,left,a,k,voiceless,33,right,0,0.972284079,126,aiu
7,left,a,k,voiceless,34,right,0,0.971877098,126,aiu
2,left,a,t,voiceless,39,right,0,0.939540148,126,aiu
5,left,i,t,voiceless,0,right,0,1.754940033,126,aiu
10,left,i,t,voiceless,1,left,1,1.136606932,126,aiu
1,left,i,k,voiceless,3,right,0,1.791392088,126,aiu
6,left,i,k,voiceless,5,right,0,1.089751005,126,aiu
9,left,i,t,voiceless,6,left,1,1.357533216,126,aiu
3,left,i,k,voiceless,7,right,0,1.119881153,126,aiu
8,left,i,t,voiceless,11,left,1,1.205903053,126,aiu
9,left,i,k,voiceless,13,left,1,1.370620966,126,aiu
1,left,i,t,voiceless,19,right,0,1.240360022,126,aiu
4,left,i,t,voiceless,20,right,0,1.356511831,126,aiu
7,left,i,t,voiceless,21,left,1,1.223697901,126,aiu
7,left,i,k,voiceless,22,right,0,1.973496914,126,aiu
6,left,i,t,voiceless,26,right,0,3.627770901,126,aiu
3,left,i,t,voiceless,28,right,0,0.93975997,126,aiu
8,left,i,k,voiceless,30,right,0,1.504469872,126,aiu
10,left,i,k,voiceless,31,left,1,1.337018967,126,aiu
2,left,i,t,voiceless,32,right,0,2.774075985,126,aiu
4,left,i,k,voiceless,35,right,0,0.738751888,126,aiu
2,left,i,k,voiceless,36,right,0,0.869594097,126,aiu
5,left,i,k,voiceless,37,right,0,1.270305157,126,aiu
2,left,u,t,voiceless,0,right,0,8.3561759,126,aiu
3,left,u,t,voiceless,2,right,0,0.871644974,126,aiu
8,left,u,k,voiceless,3,right,0,0.986460924,126,aiu
10,left,u,t,voiceless,4,left,1,0.936425209,126,aiu
7,left,u,k,voiceless,9,left,1,2.726129055,126,aiu
3,left,u,k,voiceless,11,right,0,0.805413008,126,aiu
4,left,u,t,voiceless,16,left,1,1.106425047,126,aiu
5,left,u,k,voiceless,18,right,0,2.059056997,126,aiu
6,left,u,k,voiceless,21,right,0,3.462674141,126,aiu
9,left,u,t,voiceless,22,left,1,2.306181908,126,aiu
6,left,u,t,voiceless,23,left,1,0.822789907,126,aiu
8,left,u,t,voiceless,25,left,1,1.019619942,126,aiu
2,left,u,k,voiceless,26,right,0,0.988724947,126,aiu
4,left,u,k,voiceless,27,right,0,0.989754915,126,aiu
9,left,u,k,voiceless,28,left,1,2.17516017,126,aiu
1,left,u,t,voiceless,30,right,0,3.109857082,126,aiu
7,left,u,t,voiceless,32,left,1,1.240428925,126,aiu
1,left,u,k,voiceless,37,right,0,1.875168085,126,aiu
5,left,u,t,voiceless,38,left,1,0.888432026,126,aiu
10,left,u,k,voiceless,39,left,1,1.39080596,126,aiu
10,right,a,k,voiceless,0,right,1,3.786490917,101,aiu
9,right,a,t,voiceless,1,right,1,2.604449987,101,aiu
7,right,a,t,voiceless,4,right,1,1.911562204,101,aiu
2,right,a,k,voiceless,6,left,0,1.118342876,101,aiu
4,right,a,k,voiceless,8,left,0,0.762914896,101,aiu
7,right,a,k,voiceless,12,left,0,0.814674854,101,aiu
8,right,a,k,voiceless,14,right,1,1.26965189,101,aiu
4,right,a,t,voiceless,15,right,1,0.844884157,101,aiu
3,right,a,t,voiceless,16,right,1,0.848123074,101,aiu
1,right,a,k,voiceless,17,left,0,0.678755999,101,aiu
6,right,a,t,voiceless,18,right,1,0.897877932,101,aiu
5,right,a,t,voiceless,19,right,1,0.712488174,101,aiu
8,right,a,t,voiceless,21,right,1,0.932646036,101,aiu
10,right,a,t,voiceless,22,right,1,0.695460796,101,aiu
5,right,a,k,voiceless,25,left,0,1.23617506,101,aiu
3,right,a,k,voiceless,26,right,1,1.455335855,101,aiu
6,right,a,k,voiceless,31,right,1,1.539883137,101,aiu
1,right,a,t,voiceless,33,left,0,0.92935586,101,aiu
9,right,a,k,voiceless,38,left,0,0.898434162,101,aiu
2,right,a,t,voiceless,39,right,1,0.304445028,101,aiu
5,right,i,k,voiceless,0,left,0,1.759284973,101,aiu
2,right,i,t,voiceless,1,left,0,1.421338081,101,aiu
8,right,i,k,voiceless,2,right,1,1.08483696,101,aiu
7,right,i,t,voiceless,3,right,1,0.898696899,101,aiu
3,right,i,t,voiceless,4,right,1,0.963158846,101,aiu
6,right,i,k,voiceless,9,right,1,0.898221016,101,aiu
1,right,i,t,voiceless,10,right,1,0.729155064,101,aiu
10,right,i,k,voiceless,11,right,1,1.421312094,101,aiu
3,right,i,k,voiceless,13,left,0,1.067667961,101,aiu
7,right,i,k,voiceless,14,right,1,1.303685904,101,aiu
1,right,i,k,voiceless,17,left,0,1.304051876,101,aiu
4,right,i,k,voiceless,18,left,0,1.098103046,101,aiu
10,right,i,t,voiceless,19,right,1,0.912366867,101,aiu
2,right,i,k,voiceless,21,left,0,1.404706955,101,aiu
9,right,i,t,voiceless,23,left,0,1.503809929,101,aiu
4,right,i,t,voiceless,30,right,1,1.030709028,101,aiu
6,right,i,t,voiceless,32,right,1,0.966269016,101,aiu
5,right,i,t,voiceless,34,right,1,0.747063875,101,aiu
8,right,i,t,voiceless,36,right,1,0.712388992,101,aiu
9,right,i,k,voiceless,39,left,0,0.827941179,101,aiu
8,right,u,k,voiceless,2,right,1,1.236541033,101,aiu
4,right,u,k,voiceless,4,right,1,0.743421078,101,aiu
6,right,u,k,voiceless,7,right,1,0.729336023,101,aiu
1,right,u,k,voiceless,8,left,0,1.084655046,101,aiu
10,right,u,k,voiceless,9,right,1,0.914640903,101,aiu
5,right,u,k,voiceless,11,left,0,0.62706089,101,aiu
10,right,u,t,voiceless,15,right,1,0.746931076,101,aiu
2,right,u,t,voiceless,18,left,0,0.696254015,101,aiu
3,right,u,k,voiceless,19,left,0,0.794392109,101,aiu
3,right,u,t,voiceless,20,right,1,0.712152958,101,aiu
5,right,u,t,voiceless,22,left,0,0.828142166,101,aiu
7,right,u,k,voiceless,25,right,1,0.72922802,101,aiu
6,right,u,t,voiceless,26,left,0,0.797369003,101,aiu
7,right,u,t,voiceless,27,right,1,1.371419191,101,aiu
8,right,u,t,voiceless,28,right,1,1.219782114,101,aiu
9,right,u,k,voiceless,30,right,1,0.881042957,101,aiu
1,right,u,t,voiceless,31,left,0,0.881187916,101,aiu
4,right,u,t,voiceless,35,right,1,0.696067095,101,aiu
2,right,u,k,voiceless,37,right,1,0.712986946,101,aiu
9,right,u,t,voiceless,38,left,0,0.86383605,101,aiu
1,left,i,k,voiceless,0,right,0,5.622868061,102,iua
7,left,i,t,voiceless,1,left,1,1.992829084,102,iua
9,left,i,t,voiceless,3,left,1,1.523575068,102,iua
5,left,i,k,voiceless,6,left,1,1.36807704,102,iua
10,left,i,k,voiceless,7,left,1,1.385043144,102,iua
7,left,i,k,voiceless,12,left,1,1.573624134,102,iua
4,left,i,k,voiceless,15,left,1,1.41877985,102,iua
5,left,i,t,voiceless,17,left,1,0.845149994,102,iua
6,left,i,t,voiceless,20,left,1,0.797574043,102,iua
3,left,i,t,voiceless,23,left,1,1.033766985,102,iua
1,left,i,t,voiceless,26,right,0,1.115237951,102,iua
10,left,i,t,voiceless,27,left,1,0.93177104,102,iua
2,left,i,k,voiceless,28,right,0,1.135087013,102,iua
8,left,i,k,voiceless,30,left,1,1.422559977,102,iua
9,left,i,k,voiceless,32,right,0,1.371830225,102,iua
4,left,i,t,voiceless,33,right,0,1.148694038,102,iua
8,left,i,t,voiceless,34,right,0,0.61143899,102,iua
3,left,i,k,voiceless,35,right,0,1.030894995,102,iua
6,left,i,k,voiceless,37,right,0,1.185977936,102,iua
2,left,i,t,voiceless,38,right,0,1.06387496,102,iua
5,left,u,k,voiceless,0,left,1,1.168255091,102,iua
4,left,u,k,voiceless,3,right,0,1.523597002,102,iua
7,left,u,k,voiceless,4,left,1,0.912485123,102,iua
9,left,u,t,voiceless,5,left,1,0.94846487,102,iua
1,left,u,k,voiceless,7,left,1,1.962568045,102,iua
7,left,u,t,voiceless,12,right,0,1.439150095,102,iua
3,left,u,t,voiceless,13,right,0,1.148679018,102,iua
6,left,u,k,voiceless,14,left,1,0.895401955,102,iua
8,left,u,k,voiceless,17,left,1,0.949230194,102,iua
9,left,u,k,voiceless,19,left,1,0.864957809,102,iua
5,left,u,t,voiceless,20,right,0,1.739651918,102,iua
10,left,u,t,voiceless,22,left,1,1.016527176,102,iua
6,left,u,t,voiceless,27,left,1,0.965816021,102,iua
2,left,u,t,voiceless,28,right,0,1.321229219,102,iua
1,left,u,t,voiceless,29,right,0,0.882146835,102,iua
10,left,u,k,voiceless,30,left,1,1.101423025,102,iua
4,left,u,t,voiceless,32,right,0,1.049822092,102,iua
8,left,u,t,voiceless,37,left,1,0.898391962,102,iua
3,left,u,k,voiceless,38,right,0,0.846796036,102,iua
2,left,u,k,voiceless,39,right,0,0.777200937,102,iua
3,left,a,k,voiceless,0,right,0,0.932540894,102,iua
8,left,a,t,voiceless,3,left,1,0.932698965,102,iua
7,left,a,t,voiceless,5,right,0,0.983271122,102,iua
10,left,a,t,voiceless,6,left,1,0.897688866,102,iua
9,left,a,t,voiceless,8,left,1,1.233012915,102,iua
8,left,a,k,voiceless,10,left,1,1.233078003,102,iua
1,left,a,t,voiceless,11,right,0,1.05004096,102,iua
1,left,a,k,voiceless,12,right,0,1.049406052,102,iua
9,left,a,k,voiceless,15,left,1,0.915998936,102,iua
5,left,a,k,voiceless,17,right,0,1.388348103,102,iua
6,left,a,t,voiceless,19,left,1,1.439172983,102,iua
6,left,a,k,voiceless,20,left,1,0.983351946,102,iua
5,left,a,t,voiceless,22,right,0,0.99849081,102,iua
4,left,a,t,voiceless,23,right,0,0.76064086,102,iua
3,left,a,t,voiceless,24,right,0,0.713011026,102,iua
10,left,a,k,voiceless,33,left,1,1.219190121,102,iua
2,left,a,t,voiceless,35,right,0,0.831012964,102,iua
2,left,a,k,voiceless,36,right,0,0.797106028,102,iua
7,left,a,k,voiceless,37,right,0,1.286392927,102,iua
4,left,a,k,voiceless,38,right,0,0.798416138,102,iua
7,left,a,k,voiceless,2,left,1,0.780507803,103,aui
10,left,a,k,voiceless,3,left,1,0.844990015,103,aui
7,left,a,t,voiceless,5,left,1,0.847774029,103,aui
8,left,a,k,voiceless,7,left,1,1.304203033,103,aui
10,left,a,t,voiceless,9,left,1,0.796612978,103,aui
2,left,a,k,voiceless,11,right,0,1.202837944,103,aui
2,left,a,t,voiceless,13,left,1,1.776951075,103,aui
3,left,a,t,voiceless,14,right,0,1.185741186,103,aui
4,left,a,k,voiceless,15,right,0,1.35482192,103,aui
1,left,a,t,voiceless,18,right,0,1.067423105,103,aui
5,left,a,k,voiceless,19,right,0,3.868798971,103,aui
9,left,a,t,voiceless,24,left,1,1.438575029,103,aui
8,left,a,t,voiceless,25,left,1,4.359374046,103,aui
5,left,a,t,voiceless,26,left,1,2.18168211,103,aui
3,left,a,k,voiceless,28,right,0,0.898854017,103,aui
6,left,a,k,voiceless,29,right,0,1.489220858,103,aui
1,left,a,k,voiceless,34,right,0,2.097148895,103,aui
6,left,a,t,voiceless,36,left,1,2.077490091,103,aui
9,left,a,k,voiceless,37,left,1,1.017160892,103,aui
4,left,a,t,voiceless,39,right,0,0.931658983,103,aui
5,left,u,t,voiceless,1,left,1,0.86186409,103,aui
10,left,u,t,voiceless,2,left,1,0.94945693,103,aui
4,left,u,k,voiceless,6,right,0,1.199566126,103,aui
2,left,u,k,voiceless,7,right,0,0.864462137,103,aui
7,left,u,k,voiceless,8,right,0,1.607025146,103,aui
9,left,u,t,voiceless,9,left,1,1.101130962,103,aui
4,left,u,t,voiceless,11,left,1,1.523568869,103,aui
6,left,u,t,voiceless,15,right,0,2.08140707,103,aui
5,left,u,k,voiceless,16,right,0,1.151083946,103,aui
3,left,u,t,voiceless,18,right,0,1.084264994,103,aui
3,left,u,k,voiceless,20,right,0,1.439193964,103,aui
1,left,u,k,voiceless,21,right,0,1.253391981,103,aui
9,left,u,k,voiceless,24,left,1,1.252763987,103,aui
1,left,u,t,voiceless,30,right,0,0.966225863,103,aui
8,left,u,k,voiceless,33,left,1,1.354634047,103,aui
8,left,u,t,voiceless,34,left,1,1.000184059,103,aui
6,left,u,k,voiceless,35,right,0,0.914906025,103,aui
2,left,u,t,voiceless,36,right,0,1.266932964,103,aui
10,left,u,k,voiceless,37,left,1,2.550112963,103,aui
7,left,u,t,voiceless,39,left,1,1.05053997,103,aui
3,left,i,k,voiceless,2,right,0,1.135258913,103,aui
10,left,i,t,voiceless,6,left,1,0.830338955,103,aui
7,left,i,t,voiceless,7,left,1,0.763936996,103,aui
5,left,i,t,voiceless,8,left,1,0.831273079,103,aui
6,left,i,t,voiceless,10,left,1,1.0670681,103,aui
9,left,i,t,voiceless,11,left,1,1.114871979,103,aui
1,left,i,t,voiceless,12,right,0,1.368415833,103,aui
2,left,i,k,voiceless,17,right,0,1.016577005,103,aui
9,left,i,k,voiceless,18,right,0,1.300567865,103,aui
7,left,i,k,voiceless,19,right,0,1.015733957,103,aui
10,left,i,k,voiceless,20,right,0,1.064413071,103,aui
5,left,i,k,voiceless,21,right,0,1.150917053,103,aui
4,left,i,t,voiceless,22,right,0,1.286092043,103,aui
1,left,i,k,voiceless,24,right,0,0.91510582,103,aui
4,left,i,k,voiceless,27,right,0,1.101439953,103,aui
6,left,i,k,voiceless,28,right,0,1.115296841,103,aui
3,left,i,t,voiceless,31,right,0,1.421673059,103,aui
2,left,i,t,voiceless,32,right,0,0.830888033,103,aui
8,left,i,t,voiceless,37,left,1,2.654882908,103,aui
8,left,i,k,voiceless,38,left,1,1.28660202,103,aui
8,right,a,t,voiceless,0,left,0,1.338479996,104,aui
3,right,a,t,voiceless,2,left,0,0.864622831,104,aui
1,right,a,k,voiceless,5,left,0,1.168570042,104,aui
7,right,a,t,voiceless,6,right,1,1.015954971,104,aui
4,right,a,k,voiceless,7,left,0,0.949164152,104,aui
5,right,a,k,voiceless,8,left,0,0.864731073,104,aui
10,right,a,k,voiceless,10,left,0,0.84717989,104,aui
3,right,a,k,voiceless,11,left,0,0.865003824,104,aui
9,right,a,k,voiceless,13,left,0,2.685161829,104,aui
6,right,a,t,voiceless,14,right,1,1.911983013,104,aui
10,right,a,t,voiceless,15,right,1,1.131953001,104,aui
5,right,a,t,voiceless,19,right,1,0.898338795,104,aui
7,right,a,k,voiceless,22,right,1,1.725639105,104,aui
6,right,a,k,voiceless,26,right,1,2.317224979,104,aui
8,right,a,k,voiceless,28,right,1,0.899016142,104,aui
2,right,a,k,voiceless,29,right,1,2.161526918,104,aui
4,right,a,t,voiceless,32,right,1,0.848690987,104,aui
9,right,a,t,voiceless,35,right,1,0.915278912,104,aui
2,right,a,t,voiceless,36,right,1,1.287222862,104,aui
1,right,a,t,voiceless,37,right,1,1.556782961,104,aui
5,right,u,k,voiceless,1,left,0,2.181527853,104,aui
8,right,u,k,voiceless,7,right,1,1.472388029,104,aui
3,right,u,t,voiceless,8,right,1,1.688855886,104,aui
1,right,u,k,voiceless,10,left,0,0.89905405,104,aui
9,right,u,k,voiceless,12,left,0,1.084095955,104,aui
5,right,u,t,voiceless,13,right,1,0.779828072,104,aui
6,right,u,k,voiceless,14,left,0,0.93159914,104,aui
3,right,u,k,voiceless,16,left,0,1.101653814,104,aui
10,right,u,t,voiceless,17,right,1,0.932910919,104,aui
2,right,u,k,voiceless,18,left,0,1.033002853,104,aui
4,right,u,t,voiceless,19,right,1,0.915889978,104,aui
9,right,u,t,voiceless,20,right,1,1.033908844,104,aui
4,right,u,k,voiceless,22,left,0,1.270048857,104,aui
1,right,u,t,voiceless,23,right,1,0.929432869,104,aui
7,right,u,k,voiceless,24,left,0,0.897911072,104,aui
8,right,u,t,voiceless,27,right,1,1.033389807,104,aui
2,right,u,t,voiceless,30,right,1,1.638302088,104,aui
6,right,u,t,voiceless,32,right,1,0.948873043,104,aui
7,right,u,t,voiceless,35,right,1,0.949730873,104,aui
10,right,u,k,voiceless,38,left,0,0.847664833,104,aui
7,right,i,t,voiceless,2,right,1,1.049711943,104,aui
5,right,i,k,voiceless,3,left,0,1.386824846,104,aui
3,right,i,k,voiceless,4,left,0,0.949326038,104,aui
3,right,i,t,voiceless,5,right,1,1.114816904,104,aui
1,right,i,t,voiceless,6,left,0,2.806973934,104,aui
10,right,i,t,voiceless,7,right,1,0.996563911,104,aui
2,right,i,t,voiceless,8,left,0,1.270470858,104,aui
8,right,i,t,voiceless,12,right,1,1.185974121,104,aui
4,right,i,k,voiceless,17,left,0,1.371786118,104,aui
6,right,i,t,voiceless,18,right,1,0.830018044,104,aui
8,right,i,k,voiceless,21,right,1,1.489796877,104,aui
10,right,i,k,voiceless,22,right,1,1.252819061,104,aui
1,right,i,k,voiceless,24,left,0,1.404908895,104,aui
7,right,i,k,voiceless,26,right,1,1.233283997,104,aui
2,right,i,k,voiceless,27,right,1,0.998980999,104,aui
9,right,i,t,voiceless,29,right,1,1.017109156,104,aui
9,right,i,k,voiceless,32,right,1,1.74327302,104,aui
5,right,i,t,voiceless,34,right,1,1.151783943,104,aui
6,right,i,k,voiceless,36,left,0,0.89776206,104,aui
4,right,i,t,voiceless,39,left,0,1.219816923,104,aui
10,left,i,k,voiceless,1,right,0,2.029993057,105,iau
9,left,i,k,voiceless,3,left,1,1.53746891,105,iau
8,left,i,t,voiceless,5,left,1,1.638182163,105,iau
1,left,i,t,voiceless,9,right,0,0.881108046,105,iau
2,left,i,t,voiceless,11,right,0,1.051044226,105,iau
7,left,i,k,voiceless,14,left,1,1.100525856,105,iau
1,left,i,k,voiceless,15,right,0,0.998353004,105,iau
2,left,i,k,voiceless,18,right,0,0.881650925,105,iau
4,left,i,t,voiceless,19,left,1,1.420483828,105,iau
7,left,i,t,voiceless,20,left,1,1.218773127,105,iau
9,left,i,t,voiceless,21,left,1,1.101804972,105,iau
8,left,i,k,voiceless,22,left,1,1.776821136,105,iau
4,left,i,k,voiceless,23,right,0,0.830467939,105,iau
10,left,i,t,voiceless,24,left,1,1.219208002,105,iau
6,left,i,k,voiceless,27,right,0,1.523822784,105,iau
5,left,i,t,voiceless,28,left,1,1.000259161,105,iau
6,left,i,t,voiceless,32,left,1,1.151187897,105,iau
5,left,i,k,voiceless,36,left,1,1.742017984,105,iau
3,left,i,t,voiceless,37,right,0,1.438077927,105,iau
3,left,i,k,voiceless,38,right,0,0.962849855,105,iau
4,left,a,k,voiceless,0,right,0,2.822628021,105,iau
7,left,a,k,voiceless,1,left,1,1.809607029,105,iau
10,left,a,k,voiceless,3,left,1,1.556621075,105,iau
9,left,a,t,voiceless,4,left,1,1.5880301,105,iau
9,left,a,k,voiceless,5,left,1,1.910861969,105,iau
3,left,a,k,voiceless,6,right,0,0.931589127,105,iau
2,left,a,t,voiceless,9,right,0,0.86560297,105,iau
7,left,a,t,voiceless,17,left,1,1.523562908,105,iau
2,left,a,k,voiceless,18,right,0,1.05072999,105,iau
8,left,a,k,voiceless,20,left,1,1.319771051,105,iau
5,left,a,t,voiceless,22,left,1,1.641378164,105,iau
1,left,a,t,voiceless,23,right,0,1.030745983,105,iau
5,left,a,k,voiceless,25,left,1,1.520323992,105,iau
8,left,a,t,voiceless,26,left,1,1.015985012,105,iau
6,left,a,t,voiceless,27,left,1,1.641279936,105,iau
4,left,a,t,voiceless,30,right,0,1.421763182,105,iau
3,left,a,t,voiceless,31,right,0,1.151104927,105,iau
6,left,a,k,voiceless,32,left,1,1.270323038,105,iau
10,left,a,t,voiceless,35,right,0,1.894556046,105,iau
1,left,a,k,voiceless,36,right,0,0.777277946,105,iau
7,left,u,k,voiceless,1,left,1,1.100273848,105,iau
6,left,u,t,voiceless,6,right,0,1.219398022,105,iau
7,left,u,t,voiceless,7,right,0,1.455082893,105,iau
5,left,u,t,voiceless,9,right,0,1.016290903,105,iau
4,left,u,k,voiceless,10,right,0,1.117784977,105,iau
1,left,u,t,voiceless,11,right,0,1.437605143,105,iau
2,left,u,t,voiceless,15,right,0,1.016653061,105,iau
6,left,u,k,voiceless,16,right,0,1.269160986,105,iau
3,left,u,t,voiceless,17,right,0,0.848340034,105,iau
1,left,u,k,voiceless,18,right,0,0.797785044,105,iau
3,left,u,k,voiceless,19,right,0,1.033559084,105,iau
9,left,u,t,voiceless,22,left,1,1.928014994,105,iau
10,left,u,t,voiceless,26,left,1,1.638539076,105,iau
10,left,u,k,voiceless,27,left,1,1.456119061,105,iau
2,left,u,k,voiceless,28,right,0,1.218549013,105,iau
8,left,u,k,voiceless,29,right,0,1.455195904,105,iau
8,left,u,t,voiceless,36,left,1,1.624405861,105,iau
4,left,u,t,voiceless,37,right,0,0.949605942,105,iau
5,left,u,k,voiceless,38,right,0,1.165825129,105,iau
9,left,u,k,voiceless,39,left,1,1.270335913,105,iau
8,right,i,k,voiceless,3,left,0,1.435814142,106,iau
8,right,i,t,voiceless,4,right,1,1.912094116,106,iau
9,right,i,t,voiceless,7,right,1,0.948547125,106,iau
4,right,i,k,voiceless,8,left,0,0.966613054,106,iau
5,right,i,k,voiceless,9,left,0,1.151732922,106,iau
6,right,i,k,voiceless,11,left,0,1.050525188,106,iau
6,right,i,t,voiceless,12,right,1,1.134888172,106,iau
7,right,i,t,voiceless,13,right,1,0.999766827,106,iau
4,right,i,t,voiceless,14,right,1,1.691781044,106,iau
1,right,i,t,voiceless,15,right,1,2.685207844,106,iau
3,right,i,k,voiceless,18,left,0,1.87709403,106,iau
10,right,i,k,voiceless,20,left,0,1.219492912,106,iau
5,right,i,t,voiceless,23,left,0,1.439199924,106,iau
2,right,i,t,voiceless,24,left,0,1.017289877,106,iau
9,right,i,k,voiceless,25,right,1,1.202745199,106,iau
1,right,i,k,voiceless,26,left,0,1.354762077,106,iau
10,right,i,t,voiceless,30,right,1,1.303747177,106,iau
7,right,i,k,voiceless,34,right,1,1.184931993,106,iau
2,right,i,k,voiceless,36,right,1,1.135287046,106,iau
3,right,i,t,voiceless,37,left,0,1.691408873,106,iau
5,right,a,k,voiceless,0,right,1,1.874876022,106,iau
8,right,a,k,voiceless,1,right,1,0.848437071,106,iau
9,right,a,k,voiceless,3,right,1,1.37037921,106,iau
3,right,a,t,voiceless,4,left,0,1.168089867,106,iau
6,right,a,t,voiceless,5,left,0,1.236054897,106,iau
6,right,a,k,voiceless,6,right,1,1.168601036,106,iau
1,right,a,t,voiceless,7,left,0,0.983442068,106,iau
10,right,a,t,voiceless,8,left,0,1.60790801,106,iau
5,right,a,t,voiceless,10,left,0,1.219617844,106,iau
4,right,a,k,voiceless,11,right,1,2.246371984,106,iau
2,right,a,k,voiceless,14,left,0,1.438340902,106,iau
1,right,a,k,voiceless,16,left,0,2.09727788,106,iau
4,right,a,t,voiceless,18,left,0,1.134629011,106,iau
9,right,a,t,voiceless,19,left,0,1.11510396,106,iau
7,right,a,k,voiceless,21,right,1,0.998579979,106,iau
8,right,a,t,voiceless,25,left,0,1.472918987,106,iau
10,right,a,k,voiceless,26,right,1,1.151371002,106,iau
3,right,a,k,voiceless,28,left,0,1.219084978,106,iau
2,right,a,t,voiceless,29,left,0,1.032709122,106,iau
7,right,a,t,voiceless,32,right,1,2.011996984,106,iau
3,right,u,t,voiceless,0,left,0,1.556242943,106,iau
10,right,u,t,voiceless,5,right,1,1.471873999,106,iau
7,right,u,k,voiceless,6,right,1,1.388433933,106,iau
8,right,u,k,voiceless,7,right,1,1.489204884,106,iau
10,right,u,k,voiceless,8,right,1,1.47300005,106,iau
8,right,u,t,voiceless,12,right,1,1.202064991,106,iau
7,right,u,t,voiceless,13,right,1,1.253027916,106,iau
6,right,u,t,voiceless,14,right,1,1.165733814,106,iau
6,right,u,k,voiceless,16,right,1,2.198164225,106,iau
4,right,u,t,voiceless,17,right,1,1.607000113,106,iau
1,right,u,k,voiceless,19,left,0,1.42158699,106,iau
9,right,u,t,voiceless,21,right,1,1.186294079,106,iau
2,right,u,t,voiceless,23,left,0,1.097841024,106,iau
9,right,u,k,voiceless,24,right,1,0.948866129,106,iau
5,right,u,k,voiceless,28,left,0,1.861304998,106,iau
4,right,u,k,voiceless,29,left,0,1.522796869,106,iau
1,right,u,t,voiceless,31,left,0,1.371123075,106,iau
5,right,u,t,voiceless,32,left,0,1.334352016,106,iau
3,right,u,k,voiceless,34,left,0,1.134119987,106,iau
2,right,u,k,voiceless,38,right,1,1.895015955,106,iau
6,left,u,t,voiceless,3,right,0,1.894574881,107,uai
2,left,u,k,voiceless,4,right,0,1.083991051,107,uai
4,left,u,t,voiceless,7,right,0,0.963067055,107,uai
1,left,u,t,voiceless,8,right,0,0.948889017,107,uai
8,left,u,k,voiceless,10,left,1,0.982933044,107,uai
6,left,u,k,voiceless,13,left,1,1.317652941,107,uai
9,left,u,k,voiceless,14,left,1,1.320003033,107,uai
3,left,u,k,voiceless,16,left,1,1.100386858,107,uai
1,left,u,k,voiceless,17,right,0,1.235434055,107,uai
10,left,u,t,voiceless,18,left,1,1.182698965,107,uai
9,left,u,t,voiceless,19,left,1,0.881249905,107,uai
5,left,u,k,voiceless,20,right,0,1.185336113,107,uai
10,left,u,k,voiceless,21,left,1,1.26987195,107,uai
4,left,u,k,voiceless,23,left,1,1.25321579,107,uai
7,left,u,t,voiceless,24,left,1,2.41799283,107,uai
5,left,u,t,voiceless,25,right,0,2.13123703,107,uai
2,left,u,t,voiceless,29,right,0,1.300856113,107,uai
3,left,u,t,voiceless,32,left,1,1.658649921,107,uai
8,left,u,t,voiceless,36,right,0,1.169043064,107,uai
7,left,u,k,voiceless,37,left,1,1.067884922,107,uai
6,left,a,t,voiceless,4,right,0,1.334425211,107,uai
6,left,a,k,voiceless,6,left,1,1.132000208,107,uai
3,left,a,t,voiceless,12,left,1,0.962856054,107,uai
10,left,a,t,voiceless,13,left,1,0.813252926,107,uai
4,left,a,k,voiceless,16,right,0,0.898941994,107,uai
9,left,a,t,voiceless,17,left,1,0.983283997,107,uai
7,left,a,t,voiceless,18,left,1,1.151087046,107,uai
1,left,a,k,voiceless,19,right,0,0.847653151,107,uai
7,left,a,k,voiceless,20,right,0,0.661179066,107,uai
2,left,a,k,voiceless,21,right,0,0.77967,107,uai
2,left,a,t,voiceless,22,right,0,1.252943993,107,uai
8,left,a,t,voiceless,26,left,1,0.931543112,107,uai
1,left,a,t,voiceless,27,right,0,1.064188957,107,uai
4,left,a,t,voiceless,29,right,0,0.864940166,107,uai
9,left,a,k,voiceless,30,right,0,1.134266138,107,uai
10,left,a,k,voiceless,31,left,1,1.422352076,107,uai
3,left,a,k,voiceless,33,left,1,1.253935099,107,uai
8,left,a,k,voiceless,35,right,0,2.265311956,107,uai
5,left,a,t,voiceless,38,right,0,1.134647131,107,uai
5,left,a,k,voiceless,39,left,1,2.317162037,107,uai
5,left,i,k,voiceless,0,right,0,1.016410112,107,uai
5,left,i,t,voiceless,2,right,0,1.42225194,107,uai
9,left,i,k,voiceless,3,left,1,2.013287067,107,uai
7,left,i,k,voiceless,7,right,0,1.505455971,107,uai
7,left,i,t,voiceless,8,left,1,0.696223021,107,uai
2,left,i,t,voiceless,9,right,0,1.132405996,107,uai
4,left,i,k,voiceless,10,right,0,1.216221094,107,uai
3,left,i,k,voiceless,11,right,0,0.729522228,107,uai
6,left,i,t,voiceless,14,right,0,1.253551006,107,uai
8,left,i,t,voiceless,16,right,0,0.983299017,107,uai
4,left,i,t,voiceless,19,right,0,1.185496092,107,uai
9,left,i,t,voiceless,22,left,1,0.780581951,107,uai
8,left,i,k,voiceless,26,right,0,1.537056208,107,uai
1,left,i,k,voiceless,28,right,0,1.232913017,107,uai
10,left,i,k,voiceless,31,right,0,0.847569942,107,uai
10,left,i,t,voiceless,32,left,1,0.882127047,107,uai
6,left,i,k,voiceless,33,right,0,1.418836832,107,uai
2,left,i,k,voiceless,35,right,0,0.881655931,107,uai
3,left,i,t,voiceless,37,right,0,1.168694973,107,uai
1,left,i,t,voiceless,38,left,1,0.93165803,107,uai
3,left,u,t,voiceless,1,right,0,2.58681488,108,uia
1,left,u,k,voiceless,4,right,0,1.016626835,108,uia
2,left,u,t,voiceless,5,left,1,1.520092964,108,uia
9,left,u,k,voiceless,6,left,1,1.304176092,108,uia
4,left,u,t,voiceless,7,right,0,2.31791091,108,uia
4,left,u,k,voiceless,9,right,0,1.135424852,108,uia
6,left,u,k,voiceless,10,right,0,1.084652185,108,uia
5,left,u,k,voiceless,12,left,1,3.296059132,108,uia
5,left,u,t,voiceless,15,left,1,1.303591967,108,uia
8,left,u,k,voiceless,17,left,1,1.03039813,108,uia
1,left,u,t,voiceless,22,right,0,1.033921003,108,uia
7,left,u,k,voiceless,25,left,1,1.351329088,108,uia
3,left,u,k,voiceless,26,right,0,1.402177095,108,uia
9,left,u,t,voiceless,27,left,1,1.049901962,108,uia
10,left,u,t,voiceless,28,left,1,1.184847116,108,uia
10,left,u,k,voiceless,32,left,1,1.455319881,108,uia
6,left,u,t,voiceless,33,right,0,2.383949041,108,uia
2,left,u,k,voiceless,35,right,0,0.863972902,108,uia
7,left,u,t,voiceless,38,left,1,1.252782106,108,uia
8,left,u,t,voiceless,39,left,1,1.539889812,108,uia
4,left,i,t,voiceless,2,right,0,1.25373292,108,uia
8,left,i,k,voiceless,4,left,1,1.134344101,108,uia
8,left,i,t,voiceless,6,left,1,2.637819052,108,uia
10,left,i,k,voiceless,7,left,1,0.980174065,108,uia
5,left,i,t,voiceless,12,right,0,3.379683018,108,uia
1,left,i,t,voiceless,15,right,0,0.898445845,108,uia
6,left,i,t,voiceless,17,left,1,1.185256958,108,uia
4,left,i,k,voiceless,18,left,1,2.587384939,108,uia
7,left,i,t,voiceless,19,left,1,0.780888081,108,uia
1,left,i,k,voiceless,20,right,0,0.982062101,108,uia
9,left,i,k,voiceless,21,right,0,0.813450813,108,uia
6,left,i,k,voiceless,24,right,0,1.218648195,108,uia
3,left,i,k,voiceless,25,right,0,0.746551037,108,uia
3,left,i,t,voiceless,27,right,0,0.846989155,108,uia
5,left,i,k,voiceless,29,left,1,1.049917936,108,uia
10,left,i,t,voiceless,31,left,1,1.168627977,108,uia
9,left,i,t,voiceless,33,left,1,0.999172926,108,uia
2,left,i,k,voiceless,36,left,1,1.912075996,108,uia
7,left,i,k,voiceless,37,left,1,1.303133965,108,uia
2,left,i,t,voiceless,38,right,0,0.844789028,108,uia
7,left,a,k,voiceless,1,right,0,0.796815157,108,uia
3,left,a,k,voiceless,5,right,0,1.252801895,108,uia
6,left,a,k,voiceless,7,left,1,0.914026976,108,uia
3,left,a,t,voiceless,12,right,0,1.083937883,108,uia
9,left,a,t,voiceless,16,left,1,1.962750912,108,uia
4,left,a,t,voiceless,19,left,1,1.978379011,108,uia
10,left,a,t,voiceless,21,left,1,0.780730963,108,uia
4,left,a,k,voiceless,23,right,0,1.098059893,108,uia
2,left,a,t,voiceless,24,right,0,1.371479988,108,uia
2,left,a,k,voiceless,26,right,0,1.134960175,108,uia
8,left,a,t,voiceless,27,left,1,0.966504097,108,uia
5,left,a,t,voiceless,28,right,0,1.049830914,108,uia
5,left,a,k,voiceless,29,right,0,1.439204931,108,uia
7,left,a,t,voiceless,31,left,1,1.047366142,108,uia
10,left,a,k,voiceless,32,left,1,1.388448,108,uia
9,left,a,k,voiceless,33,left,1,0.861788034,108,uia
6,left,a,t,voiceless,34,left,1,1.658202171,108,uia
1,left,a,k,voiceless,35,right,0,0.897891998,108,uia
1,left,a,t,voiceless,36,right,0,0.864067793,108,uia
8,left,a,k,voiceless,38,left,1,1.150964022,108,uia
3,right,i,t,voiceless,1,right,1,3.194131136,110,iua
1,right,i,t,voiceless,4,left,0,1.023198128,110,iua
2,right,i,k,voiceless,5,left,0,1.071855068,110,iua
5,right,i,k,voiceless,6,left,0,1.591580153,110,iua
2,right,i,t,voiceless,7,right,1,1.657210112,110,iua
8,right,i,t,voiceless,9,right,1,1.790978909,110,iua
8,right,i,k,voiceless,11,left,0,1.056349993,110,iua
4,right,i,t,voiceless,15,right,1,1.507290125,110,iua
10,right,i,t,voiceless,16,right,1,1.03905797,110,iua
6,right,i,k,voiceless,17,left,0,0.869491816,110,iua
3,right,i,k,voiceless,18,left,0,0.989542961,110,iua
1,right,i,k,voiceless,19,left,0,0.853384018,110,iua
10,right,i,k,voiceless,21,right,1,1.155990124,110,iua
7,right,i,t,voiceless,22,right,1,2.02220583,110,iua
6,right,i,t,voiceless,25,right,1,1.139049053,110,iua
5,right,i,t,voiceless,26,right,1,1.390069008,110,iua
9,right,i,t,voiceless,30,right,1,0.956448078,110,iua
9,right,i,k,voiceless,33,right,1,1.307312012,110,iua
7,right,i,k,voiceless,37,left,0,1.858908892,110,iua
4,right,i,k,voiceless,38,left,0,1.053231001,110,iua
6,right,u,k,voiceless,0,right,1,1.905357122,110,iua
3,right,u,t,voiceless,4,right,1,1.056521893,110,iua
6,right,u,t,voiceless,5,right,1,1.153467178,110,iua
10,right,u,k,voiceless,6,right,1,1.721742153,110,iua
8,right,u,t,voiceless,7,right,1,1.757525921,110,iua
1,right,u,k,voiceless,8,right,1,2.626101971,110,iua
5,right,u,t,voiceless,9,right,1,1.003095865,110,iua
8,right,u,k,voiceless,10,right,1,1.156848907,110,iua
9,right,u,k,voiceless,11,right,1,1.356908798,110,iua
7,right,u,k,voiceless,12,right,1,1.707425833,110,iua
4,right,u,k,voiceless,16,right,1,0.889699936,110,iua
9,right,u,t,voiceless,17,right,1,1.122742891,110,iua
2,right,u,t,voiceless,18,right,1,1.838294983,110,iua
4,right,u,t,voiceless,21,right,1,1.489758015,110,iua
7,right,u,t,voiceless,27,right,1,1.140172958,110,iua
